"subject","block","trial","stim_1","stim_2","rt","reaction","response"
"zPiRR","1",1,"1","1",336,"correct",1
"zPiRR","1",2,"1","1",430,"correct",1
"zPiRR","1",3,"1","1",430,"correct",1
"zPiRR","1",4,"1","1",309,"correct",1
"zPiRR","1",5,"2","1",253,"correct",0
"zPiRR","1",6,"1","1",386,"correct",1
"zPiRR","1",7,"1","1",275,"correct",1
"zPiRR","1",8,"1","2",339,"incorrect",1
"zPiRR","1",9,"1","1",368,"correct",1
"zPiRR","1",10,"1","1",469,"correct",1
"zPiRR","1",11,"1","1",366,"correct",1
"zPiRR","1",12,"2","1",287,"correct",0
"zPiRR","1",13,"1","1",441,"correct",1
"zPiRR","1",14,"1","2",593,"correct",0
"zPiRR","1",15,"2","2",326,"correct",0
"zPiRR","1",16,"1","1",372,"correct",1
"zPiRR","1",17,"1","1",329,"correct",1
"zPiRR","1",18,"1","1",399,"correct",1
"zPiRR","1",19,"1","1",429,"correct",1
"zPiRR","1",20,"1","1",343,"correct",1
"zPiRR","1",21,"1","1",423,"correct",1
"zPiRR","1",22,"1","2",488,"correct",0
"zPiRR","1",23,"1","1",427,"correct",1
"zPiRR","1",24,"1","2",480,"correct",0
"zPiRR","1",25,"1","1",414,"correct",1
"zPiRR","1",26,"2","1",284,"correct",0
"zPiRR","1",27,"1","1",361,"correct",1
"zPiRR","1",28,"1","1",425,"correct",1
"zPiRR","1",29,"2","1",312,"correct",0
"zPiRR","1",30,"1","1",330,"correct",1
"zPiRR","1",31,"1","1",460,"correct",1
"zPiRR","1",32,"1","2",451,"correct",0
"zPiRR","1",33,"2","1",351,"correct",0
"zPiRR","1",34,"1","1",362,"correct",1
"zPiRR","1",35,"2","2",405,"correct",0
"zPiRR","1",36,"1","1",354,"correct",1
"zPiRR","1",37,"1","1",406,"correct",1
"zPiRR","1",38,"1","1",426,"correct",1
"zPiRR","1",39,"1","2",558,"correct",0
"zPiRR","1",40,"1","1",455,"correct",1
"zPiRR","1",41,"1","1",484,"correct",1
"zPiRR","1",42,"1","1",525,"correct",1
"zPiRR","1",43,"2","2",381,"correct",0
"zPiRR","1",44,"1","1",510,"correct",1
"zPiRR","1",45,"1","2",746,"correct",0
"zPiRR","1",46,"2","1",325,"correct",0
"zPiRR","1",47,"1","1",350,"correct",1
"zPiRR","1",48,"1","1",406,"correct",1
"zPiRR","1",49,"1","2",526,"correct",0
"zPiRR","1",50,"1","1",408,"correct",1
"zPiRR","1",51,"1","1",373,"correct",1
"zPiRR","1",52,"1","1",331,"correct",1
"zPiRR","1",53,"2","2",294,"correct",0
"zPiRR","1",54,"2","2",267,"correct",0
"zPiRR","1",55,"1","1",354,"correct",1
"zPiRR","1",56,"1","1",420,"correct",1
"zPiRR","1",57,"1","1",356,"correct",1
"zPiRR","1",58,"1","1",394,"correct",1
"zPiRR","1",59,"1","1",369,"correct",1
"zPiRR","1",60,"1","1",346,"correct",1
"zPiRR","1",61,"1","1",358,"correct",1
"zPiRR","1",62,"1","1",366,"correct",1
"zPiRR","1",63,"1","1",556,"correct",1
"zPiRR","1",64,"2","1",314,"correct",0
"zPiRR","1",65,"2","2",563,"correct",0
"zPiRR","1",66,"1","1",431,"correct",1
"zPiRR","1",67,"1","2",522,"correct",0
"zPiRR","1",68,"2","1",254,"correct",0
"zPiRR","1",69,"1","1",348,"correct",1
"zPiRR","1",70,"2","2",308,"correct",0
"zPiRR","1",71,"1","1",417,"correct",1
"zPiRR","1",72,"1","2",517,"correct",0
"zPiRR","1",73,"1","1",663,"correct",1
"zPiRR","1",74,"1","1",398,"correct",1
"zPiRR","1",75,"1","1",408,"correct",1
"zPiRR","1",76,"1","1",417,"correct",1
"zPiRR","1",77,"1","1",357,"correct",1
"zPiRR","1",78,"2","1",359,"correct",0
"zPiRR","1",79,"1","1",642,"correct",1
"zPiRR","1",80,"1","1",423,"correct",1
"zPiRR","1",81,"1","1",448,"correct",1
"zPiRR","1",82,"1","1",383,"correct",1
"zPiRR","1",83,"1","1",387,"correct",1
"zPiRR","1",84,"1","1",473,"correct",1
"zPiRR","1",85,"1","1",409,"correct",1
"zPiRR","1",86,"1","1",351,"correct",1
"zPiRR","1",87,"1","1",396,"correct",1
"zPiRR","1",88,"1","1",457,"correct",1
"zPiRR","1",89,"2","1",468,"correct",0
"zPiRR","1",90,"1","1",608,"correct",1
"zPiRR","1",91,"1","1",505,"correct",1
"zPiRR","1",92,"2","2",312,"correct",0
"zPiRR","1",93,"1","2",489,"correct",0
"zPiRR","1",94,"1","1",542,"correct",1
"zPiRR","1",95,"1","1",436,"correct",1
"zPiRR","1",96,"1","1",529,"correct",1
"zPiRR","1",97,"1","2",555,"correct",0
"zPiRR","1",98,"1","1",410,"correct",1
"zPiRR","1",99,"2","2",328,"correct",0
"zPiRR","1",100,"1","1",431,"correct",1
"zPiRR","1",101,"1","1",413,"correct",1
"zPiRR","1",102,"2","2",226,"correct",0
"zPiRR","1",103,"1","1",363,"correct",1
"zPiRR","1",104,"1","1",424,"correct",1
"zPiRR","1",105,"1","1",393,"correct",1
"zPiRR","1",106,"2","1",311,"correct",0
"zPiRR","1",107,"1","1",389,"correct",1
"zPiRR","1",108,"1","1",381,"correct",1
"zPiRR","1",109,"1","1",430,"correct",1
"zPiRR","1",110,"2","2",452,"correct",0
"zPiRR","1",111,"2","2",414,"correct",0
"zPiRR","1",112,"1","1",408,"correct",1
"zPiRR","1",113,"2","2",354,"correct",0
"zPiRR","1",114,"1","1",338,"correct",1
"zPiRR","1",115,"1","1",389,"correct",1
"zPiRR","1",116,"1","2",645,"correct",0
"zPiRR","1",117,"1","1",566,"correct",1
"zPiRR","1",118,"1","1",429,"correct",1
"zPiRR","1",119,"1","1",375,"correct",1
"zPiRR","1",120,"1","1",397,"correct",1
"zPiRR","1",121,"1","1",369,"correct",1
"zPiRR","1",122,"1","1",471,"correct",1
"zPiRR","1",123,"1","1",348,"correct",1
"zPiRR","1",124,"2","1",341,"correct",0
"zPiRR","1",125,"2","1",269,"correct",0
"zPiRR","1",126,"1","1",522,"correct",1
"zPiRR","1",127,"1","1",466,"correct",1
"zPiRR","1",128,"1","1",375,"correct",1
"zPiRR","1",129,"1","1",390,"correct",1
"zPiRR","2",1,"1","2",604,"correct",0
"zPiRR","2",2,"1","1",436,"correct",1
"zPiRR","2",3,"1","1",394,"correct",1
"zPiRR","2",4,"2","1",260,"correct",0
"zPiRR","2",5,"1","1",400,"correct",1
"zPiRR","2",6,"1","1",442,"correct",1
"zPiRR","2",7,"1","1",385,"correct",1
"zPiRR","2",8,"1","2",504,"correct",0
"zPiRR","2",9,"1","2",530,"correct",0
"zPiRR","2",10,"1","1",439,"correct",1
"zPiRR","2",11,"1","1",342,"correct",1
"zPiRR","2",12,"1","1",379,"correct",1
"zPiRR","2",13,"2","1",268,"correct",0
"zPiRR","2",14,"2","2",232,"correct",0
"zPiRR","2",15,"2","2",197,"correct",0
"zPiRR","2",16,"1","2",457,"correct",0
"zPiRR","2",17,"2","1",200,"correct",0
"zPiRR","2",18,"1","1",301,"correct",1
"zPiRR","2",19,"2","2",0,"incorrect",1
"zPiRR","2",20,"1","1",365,"correct",1
"zPiRR","2",21,"1","1",284,"correct",1
"zPiRR","2",22,"1","1",342,"correct",1
"zPiRR","2",23,"2","1",250,"correct",0
"zPiRR","2",24,"1","1",332,"correct",1
"zPiRR","2",25,"1","1",379,"correct",1
"zPiRR","2",26,"1","1",388,"correct",1
"zPiRR","2",27,"1","1",388,"correct",1
"zPiRR","2",28,"1","1",373,"correct",1
"zPiRR","2",29,"2","2",268,"correct",0
"zPiRR","2",30,"1","1",368,"correct",1
"zPiRR","2",31,"1","1",429,"correct",1
"zPiRR","2",32,"1","1",444,"correct",1
"zPiRR","2",33,"1","1",369,"correct",1
"zPiRR","2",34,"2","2",335,"correct",0
"zPiRR","2",35,"1","1",419,"correct",1
"zPiRR","2",36,"1","1",427,"correct",1
"zPiRR","2",37,"1","1",414,"correct",1
"zPiRR","2",38,"1","1",373,"correct",1
"zPiRR","2",39,"1","1",416,"correct",1
"zPiRR","2",40,"1","1",409,"correct",1
"zPiRR","2",41,"1","1",394,"correct",1
"zPiRR","2",42,"1","1",337,"correct",1
"zPiRR","2",43,"1","1",377,"correct",1
"zPiRR","2",44,"1","1",446,"correct",1
"zPiRR","2",45,"1","1",364,"correct",1
"zPiRR","2",46,"1","1",363,"correct",1
"zPiRR","2",47,"1","1",331,"correct",1
"zPiRR","2",48,"2","2",560,"correct",0
"zPiRR","2",49,"1","1",707,"correct",1
"zPiRR","2",50,"1","1",592,"correct",1
"zPiRR","2",51,"1","1",426,"correct",1
"zPiRR","2",52,"1","1",605,"correct",1
"zPiRR","2",53,"1","1",524,"correct",1
"zPiRR","2",54,"1","1",739,"correct",1
"zPiRR","2",55,"2","2",536,"correct",0
"zPiRR","2",56,"1","1",472,"correct",1
"zPiRR","2",57,"2","1",722,"correct",0
"zPiRR","2",58,"1","2",394,"too slow",NA
"zPiRR","2",59,"1","1",349,"correct",1
"zPiRR","2",60,"1","1",347,"correct",1
"zPiRR","2",61,"1","2",467,"correct",0
"zPiRR","2",62,"2","1",226,"correct",0
"zPiRR","2",63,"1","1",408,"correct",1
"zPiRR","2",64,"1","1",347,"correct",1
"zPiRR","2",65,"1","2",596,"correct",0
"zPiRR","2",66,"1","1",370,"correct",1
"zPiRR","2",67,"1","2",473,"correct",0
"zPiRR","2",68,"2","1",238,"correct",0
"zPiRR","2",69,"2","1",196,"correct",0
"zPiRR","2",70,"1","1",394,"correct",1
"zPiRR","2",71,"1","1",373,"correct",1
"zPiRR","2",72,"1","1",360,"correct",1
"zPiRR","2",73,"2","1",495,"correct",0
"zPiRR","2",74,"1","2",606,"correct",0
"zPiRR","2",75,"1","1",422,"correct",1
"zPiRR","2",76,"1","1",537,"correct",1
"zPiRR","2",77,"1","1",419,"correct",1
"zPiRR","2",78,"1","1",403,"correct",1
"zPiRR","2",79,"1","1",647,"correct",1
"zPiRR","2",80,"2","2",286,"correct",0
"zPiRR","2",81,"1","1",381,"correct",1
"zPiRR","2",82,"1","2",535,"correct",0
"zPiRR","2",83,"1","1",414,"correct",1
"zPiRR","2",84,"1","1",366,"correct",1
"zPiRR","2",85,"2","2",382,"correct",0
"zPiRR","2",86,"1","1",320,"correct",1
"zPiRR","2",87,"1","1",291,"correct",1
"zPiRR","2",88,"1","1",300,"correct",1
"zPiRR","2",89,"1","1",305,"correct",1
"zPiRR","2",90,"2","1",302,"correct",0
"zPiRR","2",91,"1","1",290,"correct",1
"zPiRR","2",92,"1","1",350,"correct",1
"zPiRR","2",93,"1","1",370,"correct",1
"zPiRR","2",94,"2","1",351,"correct",0
"zPiRR","2",95,"2","1",371,"correct",0
"zPiRR","2",96,"1","1",330,"correct",1
"zPiRR","2",97,"2","2",529,"correct",0
"zPiRR","2",98,"1","1",384,"correct",1
"zPiRR","2",99,"1","1",297,"correct",1
"zPiRR","2",100,"1","1",337,"correct",1
"zPiRR","2",101,"1","1",319,"correct",1
"zPiRR","2",102,"1","2",258,"incorrect",1
"zPiRR","2",103,"1","1",405,"correct",1
"zPiRR","2",104,"1","1",413,"correct",1
"zPiRR","2",105,"1","1",325,"correct",1
"zPiRR","2",106,"1","1",319,"correct",1
"zPiRR","2",107,"1","1",496,"correct",1
"zPiRR","2",108,"1","1",325,"correct",1
"zPiRR","2",109,"1","1",417,"correct",1
"zPiRR","2",110,"1","1",312,"correct",1
"zPiRR","2",111,"1","1",348,"correct",1
"zPiRR","2",112,"1","1",502,"correct",1
"zPiRR","2",113,"1","1",354,"correct",1
"zPiRR","2",114,"2","1",278,"correct",0
"zPiRR","2",115,"1","1",379,"correct",1
"zPiRR","2",116,"1","2",562,"correct",0
"zPiRR","2",117,"1","1",282,"correct",1
"zPiRR","2",118,"2","2",246,"correct",0
"zPiRR","2",119,"1","1",294,"correct",1
"zPiRR","2",120,"2","2",213,"correct",0
"zPiRR","2",121,"1","1",339,"correct",1
"zPiRR","2",122,"1","1",312,"correct",1
"zPiRR","2",123,"1","1",327,"correct",1
"zPiRR","2",124,"1","1",336,"correct",1
"zPiRR","2",125,"1","1",332,"correct",1
"zPiRR","2",126,"1","1",286,"correct",1
"zPiRR","2",127,"1","2",553,"correct",0
"zPiRR","2",128,"1","1",420,"correct",1
"zPiRR","2",129,"2","2",274,"correct",0
"yFDrz","1",1,"1","1",738,"correct",1
"yFDrz","1",2,"1","1",412,"correct",1
"yFDrz","1",3,"1","1",642,"correct",1
"yFDrz","1",4,"1","1",564,"correct",1
"yFDrz","1",5,"2","1",623,"correct",0
"yFDrz","1",6,"1","1",491,"correct",1
"yFDrz","1",7,"1","1",377,"correct",1
"yFDrz","1",8,"1","2",547,"correct",0
"yFDrz","1",9,"1","1",720,"correct",1
"yFDrz","1",10,"1","1",410,"correct",1
"yFDrz","1",11,"1","1",380,"correct",1
"yFDrz","1",12,"2","1",223,"correct",0
"yFDrz","1",13,"1","1",484,"correct",1
"yFDrz","1",14,"1","2",342,"correct",0
"yFDrz","1",15,"2","2",309,"correct",0
"yFDrz","1",16,"1","1",539,"correct",1
"yFDrz","1",17,"1","1",370,"correct",1
"yFDrz","1",18,"1","1",375,"correct",1
"yFDrz","1",19,"1","1",473,"correct",1
"yFDrz","1",20,"1","1",341,"correct",1
"yFDrz","1",21,"1","1",330,"correct",1
"yFDrz","1",22,"1","2",501,"correct",0
"yFDrz","1",23,"1","1",408,"correct",1
"yFDrz","1",24,"1","2",498,"incorrect",1
"yFDrz","1",25,"1","1",0,"too slow",1
"yFDrz","1",26,"2","1",0,"too slow",NA
"yFDrz","1",27,"1","1",308,"correct",1
"yFDrz","1",28,"1","1",286,"correct",1
"yFDrz","1",29,"2","1",227,"correct",0
"yFDrz","1",30,"1","1",256,"correct",1
"yFDrz","1",31,"1","1",303,"correct",1
"yFDrz","1",32,"1","2",533,"correct",0
"yFDrz","1",33,"2","1",362,"correct",0
"yFDrz","1",34,"1","1",278,"correct",1
"yFDrz","1",35,"2","2",267,"correct",0
"yFDrz","1",36,"1","1",434,"correct",1
"yFDrz","1",37,"1","1",340,"correct",1
"yFDrz","1",38,"1","1",403,"correct",1
"yFDrz","1",39,"1","2",436,"correct",0
"yFDrz","1",40,"1","1",365,"correct",1
"yFDrz","1",41,"1","1",345,"correct",1
"yFDrz","1",42,"1","1",398,"correct",1
"yFDrz","1",43,"2","2",352,"correct",0
"yFDrz","1",44,"1","1",272,"correct",1
"yFDrz","1",45,"1","2",475,"correct",0
"yFDrz","1",46,"2","1",300,"correct",0
"yFDrz","1",47,"1","1",279,"correct",1
"yFDrz","1",48,"1","1",404,"correct",1
"yFDrz","1",49,"1","2",388,"correct",0
"yFDrz","1",50,"1","1",348,"correct",1
"yFDrz","1",51,"1","1",305,"correct",1
"yFDrz","1",52,"1","1",373,"correct",1
"yFDrz","1",53,"2","2",270,"correct",0
"yFDrz","1",54,"2","2",291,"correct",0
"yFDrz","1",55,"1","1",483,"correct",1
"yFDrz","1",56,"1","1",351,"correct",1
"yFDrz","1",57,"1","1",336,"correct",1
"yFDrz","1",58,"1","1",302,"correct",1
"yFDrz","1",59,"1","1",279,"correct",1
"yFDrz","1",60,"1","1",296,"correct",1
"yFDrz","1",61,"1","1",331,"correct",1
"yFDrz","1",62,"1","1",341,"correct",1
"yFDrz","1",63,"1","1",287,"correct",1
"yFDrz","1",64,"2","1",256,"correct",0
"yFDrz","1",65,"2","2",282,"correct",0
"yFDrz","1",66,"1","1",347,"correct",1
"yFDrz","1",67,"1","2",404,"correct",0
"yFDrz","1",68,"2","1",222,"correct",0
"yFDrz","1",69,"1","1",360,"correct",1
"yFDrz","1",70,"2","2",337,"correct",0
"yFDrz","1",71,"1","1",427,"correct",1
"yFDrz","1",72,"1","2",425,"correct",0
"yFDrz","1",73,"1","1",315,"correct",1
"yFDrz","1",74,"1","1",328,"correct",1
"yFDrz","1",75,"1","1",314,"correct",1
"yFDrz","1",76,"1","1",360,"correct",1
"yFDrz","1",77,"1","1",411,"correct",1
"yFDrz","1",78,"2","1",270,"correct",0
"yFDrz","1",79,"1","1",343,"correct",1
"yFDrz","1",80,"1","1",292,"correct",1
"yFDrz","1",81,"1","1",303,"correct",1
"yFDrz","1",82,"1","1",292,"correct",1
"yFDrz","1",83,"1","1",540,"correct",1
"yFDrz","1",84,"1","1",394,"correct",1
"yFDrz","1",85,"1","1",288,"correct",1
"yFDrz","1",86,"1","1",267,"correct",1
"yFDrz","1",87,"1","1",270,"correct",1
"yFDrz","1",88,"1","1",363,"correct",1
"yFDrz","1",89,"2","1",315,"correct",0
"yFDrz","1",90,"1","1",334,"correct",1
"yFDrz","1",91,"1","1",258,"correct",1
"yFDrz","1",92,"2","2",253,"correct",0
"yFDrz","1",93,"1","2",468,"correct",0
"yFDrz","1",94,"1","1",383,"correct",1
"yFDrz","1",95,"1","1",289,"correct",1
"yFDrz","1",96,"1","1",278,"correct",1
"yFDrz","1",97,"1","2",496,"correct",0
"yFDrz","1",98,"1","1",0,"too slow",1
"yFDrz","1",99,"2","2",280,"correct",0
"yFDrz","1",100,"1","1",265,"correct",1
"yFDrz","1",101,"1","1",256,"correct",1
"yFDrz","1",102,"2","2",291,"correct",0
"yFDrz","1",103,"1","1",272,"correct",1
"yFDrz","1",104,"1","1",308,"correct",1
"yFDrz","1",105,"1","1",304,"correct",1
"yFDrz","1",106,"2","1",245,"correct",0
"yFDrz","1",107,"1","1",297,"correct",1
"yFDrz","1",108,"1","1",0,"too slow",1
"yFDrz","1",109,"1","1",254,"correct",1
"yFDrz","1",110,"2","2",257,"correct",0
"yFDrz","1",111,"2","2",223,"correct",0
"yFDrz","1",112,"1","1",317,"correct",1
"yFDrz","1",113,"2","2",326,"correct",0
"yFDrz","1",114,"1","1",293,"correct",1
"yFDrz","1",115,"1","1",332,"correct",1
"yFDrz","1",116,"1","2",260,"incorrect",1
"yFDrz","1",117,"1","1",567,"correct",1
"yFDrz","1",118,"1","1",343,"correct",1
"yFDrz","1",119,"1","1",279,"correct",1
"yFDrz","1",120,"1","1",369,"correct",1
"yFDrz","1",121,"1","1",334,"correct",1
"yFDrz","1",122,"1","1",288,"correct",1
"yFDrz","1",123,"1","1",272,"correct",1
"yFDrz","1",124,"2","1",666,"correct",0
"yFDrz","1",125,"2","1",239,"correct",0
"yFDrz","1",126,"1","1",300,"correct",1
"yFDrz","1",127,"1","1",307,"correct",1
"yFDrz","1",128,"1","1",373,"correct",1
"yFDrz","1",129,"1","1",270,"correct",1
"yFDrz","2",1,"1","2",484,"correct",0
"yFDrz","2",2,"1","1",453,"correct",1
"yFDrz","2",3,"1","1",318,"correct",1
"yFDrz","2",4,"2","1",223,"correct",0
"yFDrz","2",5,"1","1",331,"correct",1
"yFDrz","2",6,"1","1",333,"correct",1
"yFDrz","2",7,"1","1",297,"correct",1
"yFDrz","2",8,"1","2",469,"correct",0
"yFDrz","2",9,"1","2",467,"correct",0
"yFDrz","2",10,"1","1",430,"correct",1
"yFDrz","2",11,"1","1",578,"correct",1
"yFDrz","2",12,"1","1",430,"correct",1
"yFDrz","2",13,"2","1",311,"correct",0
"yFDrz","2",14,"2","2",514,"correct",0
"yFDrz","2",15,"2","2",244,"correct",0
"yFDrz","2",16,"1","2",524,"correct",0
"yFDrz","2",17,"2","1",253,"correct",0
"yFDrz","2",18,"1","1",257,"correct",1
"yFDrz","2",19,"2","2",228,"correct",0
"yFDrz","2",20,"1","1",286,"correct",1
"yFDrz","2",21,"1","1",290,"correct",1
"yFDrz","2",22,"1","1",358,"correct",1
"yFDrz","2",23,"2","1",259,"correct",0
"yFDrz","2",24,"1","1",282,"correct",1
"yFDrz","2",25,"1","1",331,"correct",1
"yFDrz","2",26,"1","1",315,"correct",1
"yFDrz","2",27,"1","1",251,"correct",1
"yFDrz","2",28,"1","1",264,"correct",1
"yFDrz","2",29,"2","2",286,"correct",0
"yFDrz","2",30,"1","1",277,"correct",1
"yFDrz","2",31,"1","1",278,"correct",1
"yFDrz","2",32,"1","1",284,"correct",1
"yFDrz","2",33,"1","1",304,"correct",1
"yFDrz","2",34,"2","2",211,"correct",0
"yFDrz","2",35,"1","1",265,"correct",1
"yFDrz","2",36,"1","1",247,"correct",1
"yFDrz","2",37,"1","1",309,"correct",1
"yFDrz","2",38,"1","1",277,"correct",1
"yFDrz","2",39,"1","1",448,"correct",1
"yFDrz","2",40,"1","1",257,"correct",1
"yFDrz","2",41,"1","1",256,"correct",1
"yFDrz","2",42,"1","1",337,"correct",1
"yFDrz","2",43,"1","1",369,"correct",1
"yFDrz","2",44,"1","1",436,"correct",1
"yFDrz","2",45,"1","1",232,"correct",1
"yFDrz","2",46,"1","1",250,"correct",1
"yFDrz","2",47,"1","1",277,"correct",1
"yFDrz","2",48,"2","2",325,"correct",0
"yFDrz","2",49,"1","1",428,"correct",1
"yFDrz","2",50,"1","1",224,"correct",1
"yFDrz","2",51,"1","1",230,"correct",1
"yFDrz","2",52,"1","1",292,"correct",1
"yFDrz","2",53,"1","1",228,"correct",1
"yFDrz","2",54,"1","1",255,"correct",1
"yFDrz","2",55,"2","2",235,"correct",0
"yFDrz","2",56,"1","1",297,"correct",1
"yFDrz","2",57,"2","1",241,"correct",0
"yFDrz","2",58,"1","2",269,"incorrect",1
"yFDrz","2",59,"1","1",286,"correct",1
"yFDrz","2",60,"1","1",304,"correct",1
"yFDrz","2",61,"1","2",408,"correct",0
"yFDrz","2",62,"2","1",230,"correct",0
"yFDrz","2",63,"1","1",444,"correct",1
"yFDrz","2",64,"1","1",288,"correct",1
"yFDrz","2",65,"1","2",426,"correct",0
"yFDrz","2",66,"1","1",422,"correct",1
"yFDrz","2",67,"1","2",513,"correct",0
"yFDrz","2",68,"2","1",407,"correct",0
"yFDrz","2",69,"2","1",319,"correct",0
"yFDrz","2",70,"1","1",407,"correct",1
"yFDrz","2",71,"1","1",296,"correct",1
"yFDrz","2",72,"1","1",306,"correct",1
"yFDrz","2",73,"2","1",287,"correct",0
"yFDrz","2",74,"1","2",721,"correct",0
"yFDrz","2",75,"1","1",595,"correct",1
"yFDrz","2",76,"1","1",374,"correct",1
"yFDrz","2",77,"1","1",334,"correct",1
"yFDrz","2",78,"1","1",308,"correct",1
"yFDrz","2",79,"1","1",289,"correct",1
"yFDrz","2",80,"2","2",513,"correct",0
"yFDrz","2",81,"1","1",400,"correct",1
"yFDrz","2",82,"1","2",433,"correct",0
"yFDrz","2",83,"1","1",380,"correct",1
"yFDrz","2",84,"1","1",363,"correct",1
"yFDrz","2",85,"2","2",220,"correct",0
"yFDrz","2",86,"1","1",275,"correct",1
"yFDrz","2",87,"1","1",273,"correct",1
"yFDrz","2",88,"1","1",243,"correct",1
"yFDrz","2",89,"1","1",231,"correct",1
"yFDrz","2",90,"2","1",459,"correct",0
"yFDrz","2",91,"1","1",310,"correct",1
"yFDrz","2",92,"1","1",333,"correct",1
"yFDrz","2",93,"1","1",526,"correct",1
"yFDrz","2",94,"2","1",227,"correct",0
"yFDrz","2",95,"2","1",182,"correct",0
"yFDrz","2",96,"1","1",272,"correct",1
"yFDrz","2",97,"2","2",207,"correct",0
"yFDrz","2",98,"1","1",227,"correct",1
"yFDrz","2",99,"1","1",338,"correct",1
"yFDrz","2",100,"1","1",303,"correct",1
"yFDrz","2",101,"1","1",235,"correct",1
"yFDrz","2",102,"1","2",284,"incorrect",1
"yFDrz","2",103,"1","1",301,"correct",1
"yFDrz","2",104,"1","1",299,"correct",1
"yFDrz","2",105,"1","1",407,"correct",1
"yFDrz","2",106,"1","1",312,"correct",1
"yFDrz","2",107,"1","1",273,"correct",1
"yFDrz","2",108,"1","1",325,"correct",1
"yFDrz","2",109,"1","1",350,"correct",1
"yFDrz","2",110,"1","1",334,"correct",1
"yFDrz","2",111,"1","1",549,"correct",1
"yFDrz","2",112,"1","1",314,"correct",1
"yFDrz","2",113,"1","1",294,"correct",1
"yFDrz","2",114,"2","1",265,"correct",0
"yFDrz","2",115,"1","1",295,"correct",1
"yFDrz","2",116,"1","2",506,"correct",0
"yFDrz","2",117,"1","1",379,"correct",1
"yFDrz","2",118,"2","2",238,"correct",0
"yFDrz","2",119,"1","1",398,"correct",1
"yFDrz","2",120,"2","2",259,"correct",0
"yFDrz","2",121,"1","1",404,"correct",1
"yFDrz","2",122,"1","1",287,"correct",1
"yFDrz","2",123,"1","1",345,"correct",1
"yFDrz","2",124,"1","1",297,"correct",1
"yFDrz","2",125,"1","1",282,"correct",1
"yFDrz","2",126,"1","1",272,"correct",1
"yFDrz","2",127,"1","2",409,"correct",0
"yFDrz","2",128,"1","1",373,"too slow",1
"yFDrz","2",129,"2","2",223,"correct",0
"4gvSk","1",1,"1","1",508,"correct",1
"4gvSk","1",2,"1","1",553,"correct",1
"4gvSk","1",3,"1","1",405,"correct",1
"4gvSk","1",4,"1","1",403,"correct",1
"4gvSk","1",5,"2","1",204,"correct",0
"4gvSk","1",6,"1","1",410,"correct",1
"4gvSk","1",7,"1","1",450,"correct",1
"4gvSk","1",8,"1","2",540,"correct",0
"4gvSk","1",9,"1","1",407,"correct",1
"4gvSk","1",10,"1","1",428,"correct",1
"4gvSk","1",11,"1","1",377,"correct",1
"4gvSk","1",12,"2","1",559,"correct",0
"4gvSk","1",13,"1","1",431,"correct",1
"4gvSk","1",14,"1","2",537,"correct",0
"4gvSk","1",15,"2","2",227,"correct",0
"4gvSk","1",16,"1","1",378,"correct",1
"4gvSk","1",17,"1","1",389,"correct",1
"4gvSk","1",18,"1","1",408,"correct",1
"4gvSk","1",19,"1","1",364,"correct",1
"4gvSk","1",20,"1","1",525,"correct",1
"4gvSk","1",21,"1","1",421,"correct",1
"4gvSk","1",22,"1","2",558,"correct",0
"4gvSk","1",23,"1","1",453,"correct",1
"4gvSk","1",24,"1","2",643,"correct",0
"4gvSk","1",25,"1","1",455,"correct",1
"4gvSk","1",26,"2","1",539,"correct",0
"4gvSk","1",27,"1","1",345,"correct",1
"4gvSk","1",28,"1","1",379,"correct",1
"4gvSk","1",29,"2","1",308,"correct",0
"4gvSk","1",30,"1","1",323,"correct",1
"4gvSk","1",31,"1","1",340,"correct",1
"4gvSk","1",32,"1","2",561,"correct",0
"4gvSk","1",33,"2","1",537,"incorrect",1
"4gvSk","1",34,"1","1",434,"correct",1
"4gvSk","1",35,"2","2",291,"correct",0
"4gvSk","1",36,"1","1",453,"correct",1
"4gvSk","1",37,"1","1",385,"correct",1
"4gvSk","1",38,"1","1",435,"correct",1
"4gvSk","1",39,"1","2",551,"incorrect",1
"4gvSk","1",40,"1","1",531,"correct",1
"4gvSk","1",41,"1","1",514,"correct",1
"4gvSk","1",42,"1","1",357,"correct",1
"4gvSk","1",43,"2","2",291,"correct",0
"4gvSk","1",44,"1","1",310,"correct",1
"4gvSk","1",45,"1","2",572,"correct",0
"4gvSk","1",46,"2","1",0,"too slow",NA
"4gvSk","1",47,"1","1",469,"correct",1
"4gvSk","1",48,"1","1",672,"correct",1
"4gvSk","1",49,"1","2",497,"correct",0
"4gvSk","1",50,"1","1",452,"correct",1
"4gvSk","1",51,"1","1",349,"correct",1
"4gvSk","1",52,"1","1",512,"correct",1
"4gvSk","1",53,"2","2",368,"correct",0
"4gvSk","1",54,"2","2",281,"correct",0
"4gvSk","1",55,"1","1",418,"correct",1
"4gvSk","1",56,"1","1",653,"correct",1
"4gvSk","1",57,"1","1",599,"correct",1
"4gvSk","1",58,"1","1",568,"correct",1
"4gvSk","1",59,"1","1",642,"correct",1
"4gvSk","1",60,"1","1",610,"correct",1
"4gvSk","1",61,"1","1",524,"correct",1
"4gvSk","1",62,"1","1",514,"correct",1
"4gvSk","1",63,"1","1",465,"correct",1
"4gvSk","1",64,"2","1",535,"correct",0
"4gvSk","1",65,"2","2",728,"correct",0
"4gvSk","1",66,"1","1",560,"correct",1
"4gvSk","1",67,"1","2",715,"correct",0
"4gvSk","1",68,"2","1",584,"incorrect",1
"4gvSk","1",69,"1","1",601,"correct",1
"4gvSk","1",70,"2","2",677,"correct",0
"4gvSk","1",71,"1","1",477,"correct",1
"4gvSk","1",72,"1","2",0,"too slow",NA
"4gvSk","1",73,"1","1",323,"correct",1
"4gvSk","1",74,"1","1",595,"correct",1
"4gvSk","1",75,"1","1",401,"correct",1
"4gvSk","1",76,"1","1",525,"correct",1
"4gvSk","1",77,"1","1",420,"correct",1
"4gvSk","1",78,"2","1",286,"correct",0
"4gvSk","1",79,"1","1",576,"correct",1
"4gvSk","1",80,"1","1",601,"correct",1
"4gvSk","1",81,"1","1",538,"correct",1
"4gvSk","1",82,"1","1",630,"correct",1
"4gvSk","1",83,"1","1",264,"correct",1
"4gvSk","1",84,"1","1",0,"too slow",1
"4gvSk","1",85,"1","1",442,"correct",1
"4gvSk","1",86,"1","1",504,"correct",1
"4gvSk","1",87,"1","1",422,"correct",1
"4gvSk","1",88,"1","1",528,"correct",1
"4gvSk","1",89,"2","1",471,"incorrect",1
"4gvSk","1",90,"1","1",256,"correct",1
"4gvSk","1",91,"1","1",426,"correct",1
"4gvSk","1",92,"2","2",411,"correct",0
"4gvSk","1",93,"1","2",637,"correct",0
"4gvSk","1",94,"1","1",469,"correct",1
"4gvSk","1",95,"1","1",414,"correct",1
"4gvSk","1",96,"1","1",476,"correct",1
"4gvSk","1",97,"1","2",637,"correct",0
"4gvSk","1",98,"1","1",474,"correct",1
"4gvSk","1",99,"2","2",272,"correct",0
"4gvSk","1",100,"1","1",389,"correct",1
"4gvSk","1",101,"1","1",485,"correct",1
"4gvSk","1",102,"2","2",624,"correct",0
"4gvSk","1",103,"1","1",719,"incorrect",0
"4gvSk","1",104,"1","1",653,"correct",1
"4gvSk","1",105,"1","1",559,"correct",1
"4gvSk","1",106,"2","1",469,"correct",0
"4gvSk","1",107,"1","1",497,"correct",1
"4gvSk","1",108,"1","1",660,"correct",1
"4gvSk","1",109,"1","1",496,"correct",1
"4gvSk","1",110,"2","2",703,"correct",0
"4gvSk","1",111,"2","2",439,"correct",0
"4gvSk","1",112,"1","1",629,"correct",1
"4gvSk","1",113,"2","2",0,"too slow",NA
"4gvSk","1",114,"1","1",588,"correct",1
"4gvSk","1",115,"1","1",613,"correct",1
"4gvSk","1",116,"1","2",0,"too slow",NA
"4gvSk","1",117,"1","1",0,"too slow",1
"4gvSk","1",118,"1","1",359,"correct",1
"4gvSk","1",119,"1","1",279,"correct",1
"4gvSk","1",120,"1","1",533,"correct",1
"4gvSk","1",121,"1","1",314,"correct",1
"4gvSk","1",122,"1","1",211,"correct",1
"4gvSk","1",123,"1","1",235,"correct",1
"4gvSk","1",124,"2","1",0,"too slow",NA
"4gvSk","1",125,"2","1",533,"correct",0
"4gvSk","1",126,"1","1",587,"correct",1
"4gvSk","1",127,"1","1",392,"correct",1
"4gvSk","1",128,"1","1",633,"correct",1
"4gvSk","1",129,"1","1",205,"correct",1
"4gvSk","2",1,"1","2",635,"correct",0
"4gvSk","2",2,"1","1",392,"correct",1
"4gvSk","2",3,"1","1",400,"correct",1
"4gvSk","2",4,"2","1",318,"correct",0
"4gvSk","2",5,"1","1",510,"correct",1
"4gvSk","2",6,"1","1",272,"correct",1
"4gvSk","2",7,"1","1",363,"correct",1
"4gvSk","2",8,"1","2",659,"correct",0
"4gvSk","2",9,"1","2",407,"too slow",NA
"4gvSk","2",10,"1","1",512,"correct",1
"4gvSk","2",11,"1","1",331,"correct",1
"4gvSk","2",12,"1","1",272,"correct",1
"4gvSk","2",13,"2","1",204,"correct",0
"4gvSk","2",14,"2","2",217,"correct",0
"4gvSk","2",15,"2","2",410,"incorrect",1
"4gvSk","2",16,"1","2",388,"correct",0
"4gvSk","2",17,"2","1",390,"correct",0
"4gvSk","2",18,"1","1",456,"correct",1
"4gvSk","2",19,"2","2",411,"correct",0
"4gvSk","2",20,"1","1",525,"too slow",1
"4gvSk","2",21,"1","1",347,"correct",1
"4gvSk","2",22,"1","1",517,"correct",1
"4gvSk","2",23,"2","1",241,"correct",0
"4gvSk","2",24,"1","1",562,"incorrect",0
"4gvSk","2",25,"1","1",227,"correct",1
"4gvSk","2",26,"1","1",416,"correct",1
"4gvSk","2",27,"1","1",595,"correct",1
"4gvSk","2",28,"1","1",414,"correct",1
"4gvSk","2",29,"2","2",392,"correct",0
"4gvSk","2",30,"1","1",503,"correct",1
"4gvSk","2",31,"1","1",501,"correct",1
"4gvSk","2",32,"1","1",373,"correct",1
"4gvSk","2",33,"1","1",229,"correct",1
"4gvSk","2",34,"2","2",290,"incorrect",1
"4gvSk","2",35,"1","1",492,"correct",1
"4gvSk","2",36,"1","1",279,"correct",1
"4gvSk","2",37,"1","1",382,"correct",1
"4gvSk","2",38,"1","1",487,"correct",1
"4gvSk","2",39,"1","1",295,"correct",1
"4gvSk","2",40,"1","1",420,"correct",1
"4gvSk","2",41,"1","1",345,"correct",1
"4gvSk","2",42,"1","1",410,"correct",1
"4gvSk","2",43,"1","1",301,"correct",1
"4gvSk","2",44,"1","1",255,"correct",1
"4gvSk","2",45,"1","1",481,"correct",1
"4gvSk","2",46,"1","1",638,"correct",1
"4gvSk","2",47,"1","1",310,"correct",1
"4gvSk","2",48,"2","2",281,"correct",0
"4gvSk","2",49,"1","1",468,"correct",1
"4gvSk","2",50,"1","1",182,"correct",1
"4gvSk","2",51,"1","1",485,"correct",1
"4gvSk","2",52,"1","1",332,"correct",1
"4gvSk","2",53,"1","1",459,"correct",1
"4gvSk","2",54,"1","1",299,"correct",1
"4gvSk","2",55,"2","2",748,"correct",0
"4gvSk","2",56,"1","1",534,"correct",1
"4gvSk","2",57,"2","1",258,"correct",0
"4gvSk","2",58,"1","2",488,"correct",0
"4gvSk","2",59,"1","1",642,"too slow",1
"4gvSk","2",60,"1","1",599,"correct",1
"4gvSk","2",61,"1","2",536,"correct",0
"4gvSk","2",62,"2","1",417,"correct",0
"4gvSk","2",63,"1","1",312,"correct",1
"4gvSk","2",64,"1","1",705,"correct",1
"4gvSk","2",65,"1","2",630,"correct",0
"4gvSk","2",66,"1","1",605,"correct",1
"4gvSk","2",67,"1","2",640,"correct",0
"4gvSk","2",68,"2","1",553,"correct",0
"4gvSk","2",69,"2","1",306,"correct",0
"4gvSk","2",70,"1","1",425,"incorrect",0
"4gvSk","2",71,"1","1",375,"correct",1
"4gvSk","2",72,"1","1",480,"correct",1
"4gvSk","2",73,"2","1",368,"correct",0
"4gvSk","2",74,"1","2",580,"correct",0
"4gvSk","2",75,"1","1",435,"incorrect",0
"4gvSk","2",76,"1","1",380,"correct",1
"4gvSk","2",77,"1","1",420,"too slow",1
"4gvSk","2",78,"1","1",557,"correct",1
"4gvSk","2",79,"1","1",617,"correct",1
"4gvSk","2",80,"2","2",536,"correct",0
"4gvSk","2",81,"1","1",538,"too slow",1
"4gvSk","2",82,"1","2",630,"too slow",NA
"4gvSk","2",83,"1","1",437,"correct",1
"4gvSk","2",84,"1","1",518,"correct",1
"4gvSk","2",85,"2","2",320,"correct",0
"4gvSk","2",86,"1","1",514,"correct",1
"4gvSk","2",87,"1","1",422,"too slow",1
"4gvSk","2",88,"1","1",434,"correct",1
"4gvSk","2",89,"1","1",523,"correct",1
"4gvSk","2",90,"2","1",627,"incorrect",1
"4gvSk","2",91,"1","1",517,"correct",1
"4gvSk","2",92,"1","1",677,"correct",1
"4gvSk","2",93,"1","1",463,"correct",1
"4gvSk","2",94,"2","1",435,"correct",0
"4gvSk","2",95,"2","1",438,"correct",0
"4gvSk","2",96,"1","1",208,"correct",1
"4gvSk","2",97,"2","2",0,"incorrect",1
"4gvSk","2",98,"1","1",284,"correct",1
"4gvSk","2",99,"1","1",414,"correct",1
"4gvSk","2",100,"1","1",597,"correct",1
"4gvSk","2",101,"1","1",570,"correct",1
"4gvSk","2",102,"1","2",705,"incorrect",1
"4gvSk","2",103,"1","1",535,"correct",1
"4gvSk","2",104,"1","1",503,"correct",1
"4gvSk","2",105,"1","1",360,"correct",1
"4gvSk","2",106,"1","1",336,"correct",1
"4gvSk","2",107,"1","1",417,"correct",1
"4gvSk","2",108,"1","1",450,"correct",1
"4gvSk","2",109,"1","1",493,"correct",1
"4gvSk","2",110,"1","1",311,"correct",1
"4gvSk","2",111,"1","1",338,"correct",1
"4gvSk","2",112,"1","1",308,"correct",1
"4gvSk","2",113,"1","1",235,"correct",1
"4gvSk","2",114,"2","1",254,"correct",0
"4gvSk","2",115,"1","1",341,"correct",1
"4gvSk","2",116,"1","2",596,"correct",0
"4gvSk","2",117,"1","1",316,"incorrect",0
"4gvSk","2",118,"2","2",607,"correct",0
"4gvSk","2",119,"1","1",619,"correct",1
"4gvSk","2",120,"2","2",0,"incorrect",1
"4gvSk","2",121,"1","1",0,"incorrect",0
"4gvSk","2",122,"1","1",259,"correct",1
"4gvSk","2",123,"1","1",253,"correct",1
"4gvSk","2",124,"1","1",327,"correct",1
"4gvSk","2",125,"1","1",314,"correct",1
"4gvSk","2",126,"1","1",234,"correct",1
"4gvSk","2",127,"1","2",516,"correct",0
"4gvSk","2",128,"1","1",451,"correct",1
"4gvSk","2",129,"2","2",144,"correct",0
"io7tL","1",1,"1","1",460,"correct",1
"io7tL","1",2,"1","1",356,"correct",1
"io7tL","1",3,"1","1",369,"correct",1
"io7tL","1",4,"1","1",474,"correct",1
"io7tL","1",5,"2","1",239,"correct",0
"io7tL","1",6,"1","1",399,"correct",1
"io7tL","1",7,"1","1",335,"correct",1
"io7tL","1",8,"1","2",514,"correct",0
"io7tL","1",9,"1","1",341,"correct",1
"io7tL","1",10,"1","1",379,"correct",1
"io7tL","1",11,"1","1",428,"correct",1
"io7tL","1",12,"2","1",450,"correct",0
"io7tL","1",13,"1","1",313,"correct",1
"io7tL","1",14,"1","2",364,"incorrect",1
"io7tL","1",15,"2","2",200,"correct",0
"io7tL","1",16,"1","1",306,"correct",1
"io7tL","1",17,"1","1",320,"correct",1
"io7tL","1",18,"1","1",332,"correct",1
"io7tL","1",19,"1","1",300,"correct",1
"io7tL","1",20,"1","1",335,"correct",1
"io7tL","1",21,"1","1",368,"correct",1
"io7tL","1",22,"1","2",562,"correct",0
"io7tL","1",23,"1","1",435,"correct",1
"io7tL","1",24,"1","2",440,"correct",0
"io7tL","1",25,"1","1",354,"correct",1
"io7tL","1",26,"2","1",466,"correct",0
"io7tL","1",27,"1","1",314,"correct",1
"io7tL","1",28,"1","1",345,"correct",1
"io7tL","1",29,"2","1",360,"correct",0
"io7tL","1",30,"1","1",313,"correct",1
"io7tL","1",31,"1","1",337,"correct",1
"io7tL","1",32,"1","2",603,"correct",0
"io7tL","1",33,"2","1",202,"correct",0
"io7tL","1",34,"1","1",243,"correct",1
"io7tL","1",35,"2","2",212,"correct",0
"io7tL","1",36,"1","1",298,"correct",1
"io7tL","1",37,"1","1",446,"correct",1
"io7tL","1",38,"1","1",341,"correct",1
"io7tL","1",39,"1","2",359,"correct",0
"io7tL","1",40,"1","1",351,"incorrect",0
"io7tL","1",41,"1","1",331,"correct",1
"io7tL","1",42,"1","1",343,"correct",1
"io7tL","1",43,"2","2",219,"correct",0
"io7tL","1",44,"1","1",291,"correct",1
"io7tL","1",45,"1","2",564,"correct",0
"io7tL","1",46,"2","1",239,"correct",0
"io7tL","1",47,"1","1",343,"correct",1
"io7tL","1",48,"1","1",338,"correct",1
"io7tL","1",49,"1","2",475,"correct",0
"io7tL","1",50,"1","1",299,"correct",1
"io7tL","1",51,"1","1",290,"correct",1
"io7tL","1",52,"1","1",263,"correct",1
"io7tL","1",53,"2","2",226,"correct",0
"io7tL","1",54,"2","2",299,"correct",0
"io7tL","1",55,"1","1",333,"correct",1
"io7tL","1",56,"1","1",350,"correct",1
"io7tL","1",57,"1","1",393,"correct",1
"io7tL","1",58,"1","1",404,"correct",1
"io7tL","1",59,"1","1",316,"correct",1
"io7tL","1",60,"1","1",255,"correct",1
"io7tL","1",61,"1","1",321,"correct",1
"io7tL","1",62,"1","1",345,"correct",1
"io7tL","1",63,"1","1",250,"correct",1
"io7tL","1",64,"2","1",291,"correct",0
"io7tL","1",65,"2","2",344,"correct",0
"io7tL","1",66,"1","1",342,"correct",1
"io7tL","1",67,"1","2",386,"correct",0
"io7tL","1",68,"2","1",240,"correct",0
"io7tL","1",69,"1","1",284,"correct",1
"io7tL","1",70,"2","2",196,"correct",0
"io7tL","1",71,"1","1",433,"correct",1
"io7tL","1",72,"1","2",416,"incorrect",1
"io7tL","1",73,"1","1",297,"correct",1
"io7tL","1",74,"1","1",320,"correct",1
"io7tL","1",75,"1","1",434,"correct",1
"io7tL","1",76,"1","1",386,"correct",1
"io7tL","1",77,"1","1",246,"correct",1
"io7tL","1",78,"2","1",269,"correct",0
"io7tL","1",79,"1","1",225,"correct",1
"io7tL","1",80,"1","1",153,"correct",1
"io7tL","1",81,"1","1",340,"correct",1
"io7tL","1",82,"1","1",310,"correct",1
"io7tL","1",83,"1","1",231,"correct",1
"io7tL","1",84,"1","1",372,"correct",1
"io7tL","1",85,"1","1",318,"correct",1
"io7tL","1",86,"1","1",301,"correct",1
"io7tL","1",87,"1","1",284,"correct",1
"io7tL","1",88,"1","1",337,"correct",1
"io7tL","1",89,"2","1",515,"correct",0
"io7tL","1",90,"1","1",277,"correct",1
"io7tL","1",91,"1","1",295,"correct",1
"io7tL","1",92,"2","2",190,"correct",0
"io7tL","1",93,"1","2",188,"incorrect",1
"io7tL","1",94,"1","1",404,"correct",1
"io7tL","1",95,"1","1",478,"correct",1
"io7tL","1",96,"1","1",277,"correct",1
"io7tL","1",97,"1","2",440,"correct",0
"io7tL","1",98,"1","1",295,"correct",1
"io7tL","1",99,"2","2",186,"correct",0
"io7tL","1",100,"1","1",286,"correct",1
"io7tL","1",101,"1","1",310,"correct",1
"io7tL","1",102,"2","2",212,"correct",0
"io7tL","1",103,"1","1",196,"correct",1
"io7tL","1",104,"1","1",277,"correct",1
"io7tL","1",105,"1","1",352,"correct",1
"io7tL","1",106,"2","1",204,"correct",0
"io7tL","1",107,"1","1",227,"correct",1
"io7tL","1",108,"1","1",246,"correct",1
"io7tL","1",109,"1","1",316,"correct",1
"io7tL","1",110,"2","2",197,"correct",0
"io7tL","1",111,"2","2",205,"correct",0
"io7tL","1",112,"1","1",223,"correct",1
"io7tL","1",113,"2","2",334,"correct",0
"io7tL","1",114,"1","1",338,"correct",1
"io7tL","1",115,"1","1",212,"correct",1
"io7tL","1",116,"1","2",460,"correct",0
"io7tL","1",117,"1","1",345,"correct",1
"io7tL","1",118,"1","1",500,"correct",1
"io7tL","1",119,"1","1",573,"correct",1
"io7tL","1",120,"1","1",336,"correct",1
"io7tL","1",121,"1","1",418,"correct",1
"io7tL","1",122,"1","1",245,"correct",1
"io7tL","1",123,"1","1",308,"correct",1
"io7tL","1",124,"2","1",199,"correct",0
"io7tL","1",125,"2","1",212,"correct",0
"io7tL","1",126,"1","1",255,"correct",1
"io7tL","1",127,"1","1",324,"correct",1
"io7tL","1",128,"1","1",320,"correct",1
"io7tL","1",129,"1","1",333,"correct",1
"io7tL","2",1,"1","2",404,"incorrect",1
"io7tL","2",2,"1","1",368,"correct",1
"io7tL","2",3,"1","1",381,"correct",1
"io7tL","2",4,"2","1",469,"incorrect",1
"io7tL","2",5,"1","1",375,"correct",1
"io7tL","2",6,"1","1",274,"correct",1
"io7tL","2",7,"1","1",336,"correct",1
"io7tL","2",8,"1","2",459,"correct",0
"io7tL","2",9,"1","2",551,"correct",0
"io7tL","2",10,"1","1",291,"correct",1
"io7tL","2",11,"1","1",359,"correct",1
"io7tL","2",12,"1","1",416,"correct",1
"io7tL","2",13,"2","1",198,"correct",0
"io7tL","2",14,"2","2",463,"correct",0
"io7tL","2",15,"2","2",186,"correct",0
"io7tL","2",16,"1","2",200,"incorrect",1
"io7tL","2",17,"2","1",202,"correct",0
"io7tL","2",18,"1","1",340,"correct",1
"io7tL","2",19,"2","2",311,"correct",0
"io7tL","2",20,"1","1",334,"correct",1
"io7tL","2",21,"1","1",430,"correct",1
"io7tL","2",22,"1","1",484,"correct",1
"io7tL","2",23,"2","1",346,"correct",0
"io7tL","2",24,"1","1",295,"correct",1
"io7tL","2",25,"1","1",287,"correct",1
"io7tL","2",26,"1","1",226,"correct",1
"io7tL","2",27,"1","1",315,"correct",1
"io7tL","2",28,"1","1",340,"correct",1
"io7tL","2",29,"2","2",460,"correct",0
"io7tL","2",30,"1","1",268,"correct",1
"io7tL","2",31,"1","1",323,"correct",1
"io7tL","2",32,"1","1",348,"correct",1
"io7tL","2",33,"1","1",296,"correct",1
"io7tL","2",34,"2","2",210,"correct",0
"io7tL","2",35,"1","1",349,"correct",1
"io7tL","2",36,"1","1",248,"correct",1
"io7tL","2",37,"1","1",244,"correct",1
"io7tL","2",38,"1","1",220,"correct",1
"io7tL","2",39,"1","1",235,"correct",1
"io7tL","2",40,"1","1",256,"correct",1
"io7tL","2",41,"1","1",260,"correct",1
"io7tL","2",42,"1","1",278,"correct",1
"io7tL","2",43,"1","1",214,"correct",1
"io7tL","2",44,"1","1",212,"correct",1
"io7tL","2",45,"1","1",247,"correct",1
"io7tL","2",46,"1","1",327,"correct",1
"io7tL","2",47,"1","1",238,"correct",1
"io7tL","2",48,"2","2",267,"correct",0
"io7tL","2",49,"1","1",305,"correct",1
"io7tL","2",50,"1","1",360,"correct",1
"io7tL","2",51,"1","1",303,"correct",1
"io7tL","2",52,"1","1",203,"correct",1
"io7tL","2",53,"1","1",175,"correct",1
"io7tL","2",54,"1","1",250,"correct",1
"io7tL","2",55,"2","2",251,"correct",0
"io7tL","2",56,"1","1",240,"correct",1
"io7tL","2",57,"2","1",300,"correct",0
"io7tL","2",58,"1","2",462,"correct",0
"io7tL","2",59,"1","1",284,"correct",1
"io7tL","2",60,"1","1",201,"correct",1
"io7tL","2",61,"1","2",316,"incorrect",1
"io7tL","2",62,"2","1",312,"correct",0
"io7tL","2",63,"1","1",349,"correct",1
"io7tL","2",64,"1","1",350,"correct",1
"io7tL","2",65,"1","2",558,"correct",0
"io7tL","2",66,"1","1",356,"correct",1
"io7tL","2",67,"1","2",590,"incorrect",1
"io7tL","2",68,"2","1",408,"correct",0
"io7tL","2",69,"2","1",216,"correct",0
"io7tL","2",70,"1","1",331,"correct",1
"io7tL","2",71,"1","1",337,"correct",1
"io7tL","2",72,"1","1",374,"correct",1
"io7tL","2",73,"2","1",228,"correct",0
"io7tL","2",74,"1","2",388,"incorrect",1
"io7tL","2",75,"1","1",319,"correct",1
"io7tL","2",76,"1","1",331,"correct",1
"io7tL","2",77,"1","1",276,"correct",1
"io7tL","2",78,"1","1",331,"correct",1
"io7tL","2",79,"1","1",255,"correct",1
"io7tL","2",80,"2","2",88,"correct",0
"io7tL","2",81,"1","1",224,"correct",1
"io7tL","2",82,"1","2",373,"incorrect",1
"io7tL","2",83,"1","1",326,"correct",1
"io7tL","2",84,"1","1",317,"correct",1
"io7tL","2",85,"2","2",567,"correct",0
"io7tL","2",86,"1","1",369,"correct",1
"io7tL","2",87,"1","1",311,"correct",1
"io7tL","2",88,"1","1",344,"correct",1
"io7tL","2",89,"1","1",349,"correct",1
"io7tL","2",90,"2","1",258,"correct",0
"io7tL","2",91,"1","1",311,"correct",1
"io7tL","2",92,"1","1",359,"correct",1
"io7tL","2",93,"1","1",359,"correct",1
"io7tL","2",94,"2","1",257,"correct",0
"io7tL","2",95,"2","1",221,"correct",0
"io7tL","2",96,"1","1",224,"correct",1
"io7tL","2",97,"2","2",306,"correct",0
"io7tL","2",98,"1","1",252,"correct",1
"io7tL","2",99,"1","1",299,"correct",1
"io7tL","2",100,"1","1",239,"correct",1
"io7tL","2",101,"1","1",255,"correct",1
"io7tL","2",102,"1","2",214,"incorrect",1
"io7tL","2",103,"1","1",467,"correct",1
"io7tL","2",104,"1","1",312,"correct",1
"io7tL","2",105,"1","1",343,"correct",1
"io7tL","2",106,"1","1",354,"correct",1
"io7tL","2",107,"1","1",384,"correct",1
"io7tL","2",108,"1","1",409,"correct",1
"io7tL","2",109,"1","1",374,"correct",1
"io7tL","2",110,"1","1",271,"correct",1
"io7tL","2",111,"1","1",352,"correct",1
"io7tL","2",112,"1","1",343,"correct",1
"io7tL","2",113,"1","1",370,"correct",1
"io7tL","2",114,"2","1",206,"correct",0
"io7tL","2",115,"1","1",261,"correct",1
"io7tL","2",116,"1","2",722,"correct",0
"io7tL","2",117,"1","1",344,"correct",1
"io7tL","2",118,"2","2",300,"correct",0
"io7tL","2",119,"1","1",360,"correct",1
"io7tL","2",120,"2","2",201,"correct",0
"io7tL","2",121,"1","1",362,"correct",1
"io7tL","2",122,"1","1",365,"correct",1
"io7tL","2",123,"1","1",339,"correct",1
"io7tL","2",124,"1","1",292,"correct",1
"io7tL","2",125,"1","1",278,"correct",1
"io7tL","2",126,"1","1",286,"correct",1
"io7tL","2",127,"1","2",448,"incorrect",1
"io7tL","2",128,"1","1",296,"correct",1
"io7tL","2",129,"2","2",230,"correct",0
"ZZ74m","1",1,"1","1",480,"correct",1
"ZZ74m","1",2,"1","1",381,"correct",1
"ZZ74m","1",3,"1","1",319,"correct",1
"ZZ74m","1",4,"1","1",269,"correct",1
"ZZ74m","1",5,"2","1",277,"correct",0
"ZZ74m","1",6,"1","1",286,"correct",1
"ZZ74m","1",7,"1","1",253,"correct",1
"ZZ74m","1",8,"1","2",430,"correct",0
"ZZ74m","1",9,"1","1",379,"correct",1
"ZZ74m","1",10,"1","1",269,"correct",1
"ZZ74m","1",11,"1","1",238,"correct",1
"ZZ74m","1",12,"2","1",232,"correct",0
"ZZ74m","1",13,"1","1",244,"correct",1
"ZZ74m","1",14,"1","2",466,"correct",0
"ZZ74m","1",15,"2","2",539,"correct",0
"ZZ74m","1",16,"1","1",406,"correct",1
"ZZ74m","1",17,"1","1",252,"correct",1
"ZZ74m","1",18,"1","1",321,"correct",1
"ZZ74m","1",19,"1","1",225,"correct",1
"ZZ74m","1",20,"1","1",339,"correct",1
"ZZ74m","1",21,"1","1",285,"correct",1
"ZZ74m","1",22,"1","2",421,"correct",0
"ZZ74m","1",23,"1","1",319,"correct",1
"ZZ74m","1",24,"1","2",462,"correct",0
"ZZ74m","1",25,"1","1",271,"correct",1
"ZZ74m","1",26,"2","1",166,"correct",0
"ZZ74m","1",27,"1","1",266,"correct",1
"ZZ74m","1",28,"1","1",495,"correct",1
"ZZ74m","1",29,"2","1",535,"incorrect",1
"ZZ74m","1",30,"1","1",270,"correct",1
"ZZ74m","1",31,"1","1",258,"correct",1
"ZZ74m","1",32,"1","2",498,"correct",0
"ZZ74m","1",33,"2","1",284,"correct",0
"ZZ74m","1",34,"1","1",410,"correct",1
"ZZ74m","1",35,"2","2",246,"correct",0
"ZZ74m","1",36,"1","1",243,"correct",1
"ZZ74m","1",37,"1","1",316,"correct",1
"ZZ74m","1",38,"1","1",261,"correct",1
"ZZ74m","1",39,"1","2",498,"correct",0
"ZZ74m","1",40,"1","1",316,"correct",1
"ZZ74m","1",41,"1","1",252,"correct",1
"ZZ74m","1",42,"1","1",307,"correct",1
"ZZ74m","1",43,"2","2",240,"correct",0
"ZZ74m","1",44,"1","1",327,"correct",1
"ZZ74m","1",45,"1","2",487,"correct",0
"ZZ74m","1",46,"2","1",460,"correct",0
"ZZ74m","1",47,"1","1",433,"correct",1
"ZZ74m","1",48,"1","1",355,"correct",1
"ZZ74m","1",49,"1","2",394,"correct",0
"ZZ74m","1",50,"1","1",221,"correct",1
"ZZ74m","1",51,"1","1",254,"correct",1
"ZZ74m","1",52,"1","1",305,"correct",1
"ZZ74m","1",53,"2","2",489,"correct",0
"ZZ74m","1",54,"2","2",543,"correct",0
"ZZ74m","1",55,"1","1",253,"correct",1
"ZZ74m","1",56,"1","1",640,"correct",1
"ZZ74m","1",57,"1","1",334,"correct",1
"ZZ74m","1",58,"1","1",329,"correct",1
"ZZ74m","1",59,"1","1",228,"correct",1
"ZZ74m","1",60,"1","1",224,"correct",1
"ZZ74m","1",61,"1","1",259,"correct",1
"ZZ74m","1",62,"1","1",268,"correct",1
"ZZ74m","1",63,"1","1",246,"correct",1
"ZZ74m","1",64,"2","1",228,"correct",0
"ZZ74m","1",65,"2","2",230,"correct",0
"ZZ74m","1",66,"1","1",536,"correct",1
"ZZ74m","1",67,"1","2",440,"correct",0
"ZZ74m","1",68,"2","1",232,"correct",0
"ZZ74m","1",69,"1","1",219,"correct",1
"ZZ74m","1",70,"2","2",464,"correct",0
"ZZ74m","1",71,"1","1",356,"correct",1
"ZZ74m","1",72,"1","2",518,"correct",0
"ZZ74m","1",73,"1","1",261,"correct",1
"ZZ74m","1",74,"1","1",391,"correct",1
"ZZ74m","1",75,"1","1",309,"correct",1
"ZZ74m","1",76,"1","1",260,"correct",1
"ZZ74m","1",77,"1","1",276,"correct",1
"ZZ74m","1",78,"2","1",331,"correct",0
"ZZ74m","1",79,"1","1",496,"correct",1
"ZZ74m","1",80,"1","1",582,"incorrect",0
"ZZ74m","1",81,"1","1",180,"correct",1
"ZZ74m","1",82,"1","1",287,"correct",1
"ZZ74m","1",83,"1","1",230,"correct",1
"ZZ74m","1",84,"1","1",50,"correct",1
"ZZ74m","1",85,"1","1",0,"too slow",1
"ZZ74m","1",86,"1","1",229,"correct",1
"ZZ74m","1",87,"1","1",248,"correct",1
"ZZ74m","1",88,"1","1",225,"correct",1
"ZZ74m","1",89,"2","1",225,"correct",0
"ZZ74m","1",90,"1","1",330,"correct",1
"ZZ74m","1",91,"1","1",304,"correct",1
"ZZ74m","1",92,"2","2",560,"correct",0
"ZZ74m","1",93,"1","2",419,"correct",0
"ZZ74m","1",94,"1","1",312,"correct",1
"ZZ74m","1",95,"1","1",373,"correct",1
"ZZ74m","1",96,"1","1",301,"correct",1
"ZZ74m","1",97,"1","2",348,"correct",0
"ZZ74m","1",98,"1","1",231,"correct",1
"ZZ74m","1",99,"2","2",175,"correct",0
"ZZ74m","1",100,"1","1",322,"correct",1
"ZZ74m","1",101,"1","1",301,"correct",1
"ZZ74m","1",102,"2","2",513,"correct",0
"ZZ74m","1",103,"1","1",337,"correct",1
"ZZ74m","1",104,"1","1",322,"correct",1
"ZZ74m","1",105,"1","1",228,"correct",1
"ZZ74m","1",106,"2","1",387,"correct",0
"ZZ74m","1",107,"1","1",239,"correct",1
"ZZ74m","1",108,"1","1",220,"correct",1
"ZZ74m","1",109,"1","1",240,"correct",1
"ZZ74m","1",110,"2","2",601,"correct",0
"ZZ74m","1",111,"2","2",419,"correct",0
"ZZ74m","1",112,"1","1",307,"correct",1
"ZZ74m","1",113,"2","2",380,"correct",0
"ZZ74m","1",114,"1","1",228,"correct",1
"ZZ74m","1",115,"1","1",311,"correct",1
"ZZ74m","1",116,"1","2",397,"correct",0
"ZZ74m","1",117,"1","1",400,"correct",1
"ZZ74m","1",118,"1","1",275,"correct",1
"ZZ74m","1",119,"1","1",306,"correct",1
"ZZ74m","1",120,"1","1",274,"correct",1
"ZZ74m","1",121,"1","1",287,"correct",1
"ZZ74m","1",122,"1","1",310,"correct",1
"ZZ74m","1",123,"1","1",237,"correct",1
"ZZ74m","1",124,"2","1",202,"correct",0
"ZZ74m","1",125,"2","1",593,"correct",0
"ZZ74m","1",126,"1","1",287,"correct",1
"ZZ74m","1",127,"1","1",218,"correct",1
"ZZ74m","1",128,"1","1",251,"correct",1
"ZZ74m","1",129,"1","1",472,"correct",1
"ZZ74m","2",1,"1","2",441,"correct",0
"ZZ74m","2",2,"1","1",356,"correct",1
"ZZ74m","2",3,"1","1",270,"correct",1
"ZZ74m","2",4,"2","1",350,"correct",0
"ZZ74m","2",5,"1","1",341,"correct",1
"ZZ74m","2",6,"1","1",240,"correct",1
"ZZ74m","2",7,"1","1",211,"correct",1
"ZZ74m","2",8,"1","2",460,"correct",0
"ZZ74m","2",9,"1","2",495,"correct",0
"ZZ74m","2",10,"1","1",408,"correct",1
"ZZ74m","2",11,"1","1",346,"correct",1
"ZZ74m","2",12,"1","1",325,"correct",1
"ZZ74m","2",13,"2","1",505,"correct",0
"ZZ74m","2",14,"2","2",486,"correct",0
"ZZ74m","2",15,"2","2",390,"correct",0
"ZZ74m","2",16,"1","2",261,"incorrect",1
"ZZ74m","2",17,"2","1",252,"too slow",NA
"ZZ74m","2",18,"1","1",271,"correct",1
"ZZ74m","2",19,"2","2",607,"correct",0
"ZZ74m","2",20,"1","1",505,"correct",1
"ZZ74m","2",21,"1","1",297,"correct",1
"ZZ74m","2",22,"1","1",277,"correct",1
"ZZ74m","2",23,"2","1",235,"correct",0
"ZZ74m","2",24,"1","1",238,"correct",1
"ZZ74m","2",25,"1","1",277,"correct",1
"ZZ74m","2",26,"1","1",319,"correct",1
"ZZ74m","2",27,"1","1",314,"correct",1
"ZZ74m","2",28,"1","1",249,"correct",1
"ZZ74m","2",29,"2","2",256,"correct",0
"ZZ74m","2",30,"1","1",391,"correct",1
"ZZ74m","2",31,"1","1",328,"correct",1
"ZZ74m","2",32,"1","1",385,"correct",1
"ZZ74m","2",33,"1","1",339,"correct",1
"ZZ74m","2",34,"2","2",177,"correct",0
"ZZ74m","2",35,"1","1",345,"correct",1
"ZZ74m","2",36,"1","1",268,"correct",1
"ZZ74m","2",37,"1","1",298,"correct",1
"ZZ74m","2",38,"1","1",243,"correct",1
"ZZ74m","2",39,"1","1",501,"correct",1
"ZZ74m","2",40,"1","1",255,"correct",1
"ZZ74m","2",41,"1","1",316,"correct",1
"ZZ74m","2",42,"1","1",260,"correct",1
"ZZ74m","2",43,"1","1",252,"correct",1
"ZZ74m","2",44,"1","1",277,"correct",1
"ZZ74m","2",45,"1","1",316,"correct",1
"ZZ74m","2",46,"1","1",412,"correct",1
"ZZ74m","2",47,"1","1",289,"correct",1
"ZZ74m","2",48,"2","2",684,"correct",0
"ZZ74m","2",49,"1","1",285,"correct",1
"ZZ74m","2",50,"1","1",314,"correct",1
"ZZ74m","2",51,"1","1",308,"correct",1
"ZZ74m","2",52,"1","1",249,"correct",1
"ZZ74m","2",53,"1","1",238,"correct",1
"ZZ74m","2",54,"1","1",276,"correct",1
"ZZ74m","2",55,"2","2",120,"correct",0
"ZZ74m","2",56,"1","1",277,"correct",1
"ZZ74m","2",57,"2","1",233,"correct",0
"ZZ74m","2",58,"1","2",478,"correct",0
"ZZ74m","2",59,"1","1",345,"correct",1
"ZZ74m","2",60,"1","1",243,"correct",1
"ZZ74m","2",61,"1","2",393,"correct",0
"ZZ74m","2",62,"2","1",224,"correct",0
"ZZ74m","2",63,"1","1",257,"correct",1
"ZZ74m","2",64,"1","1",340,"correct",1
"ZZ74m","2",65,"1","2",440,"correct",0
"ZZ74m","2",66,"1","1",288,"correct",1
"ZZ74m","2",67,"1","2",402,"correct",0
"ZZ74m","2",68,"2","1",220,"correct",0
"ZZ74m","2",69,"2","1",230,"correct",0
"ZZ74m","2",70,"1","1",363,"correct",1
"ZZ74m","2",71,"1","1",367,"correct",1
"ZZ74m","2",72,"1","1",290,"correct",1
"ZZ74m","2",73,"2","1",201,"correct",0
"ZZ74m","2",74,"1","2",361,"correct",0
"ZZ74m","2",75,"1","1",339,"correct",1
"ZZ74m","2",76,"1","1",309,"correct",1
"ZZ74m","2",77,"1","1",281,"correct",1
"ZZ74m","2",78,"1","1",282,"correct",1
"ZZ74m","2",79,"1","1",237,"correct",1
"ZZ74m","2",80,"2","2",232,"correct",0
"ZZ74m","2",81,"1","1",266,"incorrect",0
"ZZ74m","2",82,"1","2",644,"correct",0
"ZZ74m","2",83,"1","1",321,"correct",1
"ZZ74m","2",84,"1","1",389,"correct",1
"ZZ74m","2",85,"2","2",305,"correct",0
"ZZ74m","2",86,"1","1",218,"correct",1
"ZZ74m","2",87,"1","1",336,"correct",1
"ZZ74m","2",88,"1","1",382,"correct",1
"ZZ74m","2",89,"1","1",366,"correct",1
"ZZ74m","2",90,"2","1",234,"correct",0
"ZZ74m","2",91,"1","1",207,"correct",1
"ZZ74m","2",92,"1","1",253,"correct",1
"ZZ74m","2",93,"1","1",327,"correct",1
"ZZ74m","2",94,"2","1",298,"correct",0
"ZZ74m","2",95,"2","1",309,"correct",0
"ZZ74m","2",96,"1","1",446,"incorrect",0
"ZZ74m","2",97,"2","2",507,"correct",0
"ZZ74m","2",98,"1","1",244,"correct",1
"ZZ74m","2",99,"1","1",449,"correct",1
"ZZ74m","2",100,"1","1",240,"correct",1
"ZZ74m","2",101,"1","1",313,"correct",1
"ZZ74m","2",102,"1","2",592,"correct",0
"ZZ74m","2",103,"1","1",615,"correct",1
"ZZ74m","2",104,"1","1",321,"correct",1
"ZZ74m","2",105,"1","1",292,"correct",1
"ZZ74m","2",106,"1","1",578,"correct",1
"ZZ74m","2",107,"1","1",408,"correct",1
"ZZ74m","2",108,"1","1",360,"correct",1
"ZZ74m","2",109,"1","1",226,"correct",1
"ZZ74m","2",110,"1","1",248,"correct",1
"ZZ74m","2",111,"1","1",228,"correct",1
"ZZ74m","2",112,"1","1",229,"correct",1
"ZZ74m","2",113,"1","1",224,"correct",1
"ZZ74m","2",114,"2","1",575,"correct",0
"ZZ74m","2",115,"1","1",345,"correct",1
"ZZ74m","2",116,"1","2",204,"incorrect",1
"ZZ74m","2",117,"1","1",540,"correct",1
"ZZ74m","2",118,"2","2",280,"correct",0
"ZZ74m","2",119,"1","1",416,"correct",1
"ZZ74m","2",120,"2","2",357,"correct",0
"ZZ74m","2",121,"1","1",306,"correct",1
"ZZ74m","2",122,"1","1",517,"correct",1
"ZZ74m","2",123,"1","1",315,"correct",1
"ZZ74m","2",124,"1","1",513,"correct",1
"ZZ74m","2",125,"1","1",593,"too slow",1
"ZZ74m","2",126,"1","1",310,"correct",1
"ZZ74m","2",127,"1","2",457,"correct",0
"ZZ74m","2",128,"1","1",246,"correct",1
"ZZ74m","2",129,"2","2",595,"correct",0
"SCFzz","1",1,"1","1",353,"correct",1
"SCFzz","1",2,"1","1",513,"correct",1
"SCFzz","1",3,"1","1",444,"correct",1
"SCFzz","1",4,"1","1",460,"correct",1
"SCFzz","1",5,"2","1",312,"correct",0
"SCFzz","1",6,"1","1",370,"correct",1
"SCFzz","1",7,"1","1",347,"correct",1
"SCFzz","1",8,"1","2",683,"correct",0
"SCFzz","1",9,"1","1",521,"incorrect",0
"SCFzz","1",10,"1","1",481,"correct",1
"SCFzz","1",11,"1","1",621,"incorrect",0
"SCFzz","1",12,"2","1",341,"correct",0
"SCFzz","1",13,"1","1",325,"correct",1
"SCFzz","1",14,"1","2",517,"correct",0
"SCFzz","1",15,"2","2",279,"correct",0
"SCFzz","1",16,"1","1",344,"correct",1
"SCFzz","1",17,"1","1",577,"correct",1
"SCFzz","1",18,"1","1",483,"correct",1
"SCFzz","1",19,"1","1",351,"correct",1
"SCFzz","1",20,"1","1",506,"correct",1
"SCFzz","1",21,"1","1",425,"correct",1
"SCFzz","1",22,"1","2",482,"correct",0
"SCFzz","1",23,"1","1",433,"correct",1
"SCFzz","1",24,"1","2",430,"correct",0
"SCFzz","1",25,"1","1",382,"correct",1
"SCFzz","1",26,"2","1",299,"correct",0
"SCFzz","1",27,"1","1",368,"correct",1
"SCFzz","1",28,"1","1",390,"correct",1
"SCFzz","1",29,"2","1",304,"correct",0
"SCFzz","1",30,"1","1",362,"correct",1
"SCFzz","1",31,"1","1",485,"correct",1
"SCFzz","1",32,"1","2",511,"correct",0
"SCFzz","1",33,"2","1",322,"correct",0
"SCFzz","1",34,"1","1",366,"correct",1
"SCFzz","1",35,"2","2",401,"correct",0
"SCFzz","1",36,"1","1",338,"correct",1
"SCFzz","1",37,"1","1",406,"correct",1
"SCFzz","1",38,"1","1",346,"correct",1
"SCFzz","1",39,"1","2",0,"too slow",NA
"SCFzz","1",40,"1","1",509,"correct",1
"SCFzz","1",41,"1","1",699,"incorrect",0
"SCFzz","1",42,"1","1",348,"correct",1
"SCFzz","1",43,"2","2",263,"correct",0
"SCFzz","1",44,"1","1",0,"too slow",1
"SCFzz","1",45,"1","2",469,"correct",0
"SCFzz","1",46,"2","1",256,"correct",0
"SCFzz","1",47,"1","1",611,"correct",1
"SCFzz","1",48,"1","1",382,"correct",1
"SCFzz","1",49,"1","2",471,"correct",0
"SCFzz","1",50,"1","1",297,"correct",1
"SCFzz","1",51,"1","1",413,"correct",1
"SCFzz","1",52,"1","1",281,"correct",1
"SCFzz","1",53,"2","2",325,"correct",0
"SCFzz","1",54,"2","2",336,"correct",0
"SCFzz","1",55,"1","1",315,"correct",1
"SCFzz","1",56,"1","1",418,"correct",1
"SCFzz","1",57,"1","1",341,"correct",1
"SCFzz","1",58,"1","1",358,"correct",1
"SCFzz","1",59,"1","1",320,"correct",1
"SCFzz","1",60,"1","1",0,"too slow",1
"SCFzz","1",61,"1","1",442,"correct",1
"SCFzz","1",62,"1","1",548,"correct",1
"SCFzz","1",63,"1","1",460,"correct",1
"SCFzz","1",64,"2","1",259,"correct",0
"SCFzz","1",65,"2","2",721,"correct",0
"SCFzz","1",66,"1","1",646,"correct",1
"SCFzz","1",67,"1","2",665,"correct",0
"SCFzz","1",68,"2","1",314,"correct",0
"SCFzz","1",69,"1","1",345,"correct",1
"SCFzz","1",70,"2","2",382,"correct",0
"SCFzz","1",71,"1","1",496,"correct",1
"SCFzz","1",72,"1","2",546,"correct",0
"SCFzz","1",73,"1","1",348,"correct",1
"SCFzz","1",74,"1","1",318,"correct",1
"SCFzz","1",75,"1","1",338,"correct",1
"SCFzz","1",76,"1","1",356,"correct",1
"SCFzz","1",77,"1","1",398,"correct",1
"SCFzz","1",78,"2","1",421,"correct",0
"SCFzz","1",79,"1","1",0,"too slow",1
"SCFzz","1",80,"1","1",406,"correct",1
"SCFzz","1",81,"1","1",345,"correct",1
"SCFzz","1",82,"1","1",392,"correct",1
"SCFzz","1",83,"1","1",313,"correct",1
"SCFzz","1",84,"1","1",395,"correct",1
"SCFzz","1",85,"1","1",291,"correct",1
"SCFzz","1",86,"1","1",374,"incorrect",0
"SCFzz","1",87,"1","1",346,"correct",1
"SCFzz","1",88,"1","1",362,"correct",1
"SCFzz","1",89,"2","1",438,"correct",0
"SCFzz","1",90,"1","1",319,"correct",1
"SCFzz","1",91,"1","1",352,"correct",1
"SCFzz","1",92,"2","2",280,"correct",0
"SCFzz","1",93,"1","2",523,"correct",0
"SCFzz","1",94,"1","1",415,"correct",1
"SCFzz","1",95,"1","1",485,"correct",1
"SCFzz","1",96,"1","1",379,"correct",1
"SCFzz","1",97,"1","2",481,"correct",0
"SCFzz","1",98,"1","1",355,"correct",1
"SCFzz","1",99,"2","2",286,"correct",0
"SCFzz","1",100,"1","1",433,"correct",1
"SCFzz","1",101,"1","1",336,"correct",1
"SCFzz","1",102,"2","2",478,"correct",0
"SCFzz","1",103,"1","1",377,"correct",1
"SCFzz","1",104,"1","1",345,"correct",1
"SCFzz","1",105,"1","1",330,"correct",1
"SCFzz","1",106,"2","1",268,"correct",0
"SCFzz","1",107,"1","1",354,"correct",1
"SCFzz","1",108,"1","1",325,"correct",1
"SCFzz","1",109,"1","1",385,"correct",1
"SCFzz","1",110,"2","2",396,"correct",0
"SCFzz","1",111,"2","2",440,"correct",0
"SCFzz","1",112,"1","1",303,"correct",1
"SCFzz","1",113,"2","2",334,"correct",0
"SCFzz","1",114,"1","1",361,"correct",1
"SCFzz","1",115,"1","1",548,"correct",1
"SCFzz","1",116,"1","2",531,"correct",0
"SCFzz","1",117,"1","1",311,"correct",1
"SCFzz","1",118,"1","1",315,"correct",1
"SCFzz","1",119,"1","1",323,"correct",1
"SCFzz","1",120,"1","1",294,"correct",1
"SCFzz","1",121,"1","1",348,"correct",1
"SCFzz","1",122,"1","1",337,"correct",1
"SCFzz","1",123,"1","1",319,"correct",1
"SCFzz","1",124,"2","1",248,"correct",0
"SCFzz","1",125,"2","1",394,"correct",0
"SCFzz","1",126,"1","1",375,"correct",1
"SCFzz","1",127,"1","1",365,"correct",1
"SCFzz","1",128,"1","1",333,"correct",1
"SCFzz","1",129,"1","1",405,"correct",1
"SCFzz","2",1,"1","2",535,"correct",0
"SCFzz","2",2,"1","1",372,"correct",1
"SCFzz","2",3,"1","1",335,"correct",1
"SCFzz","2",4,"2","1",368,"correct",0
"SCFzz","2",5,"1","1",394,"correct",1
"SCFzz","2",6,"1","1",367,"correct",1
"SCFzz","2",7,"1","1",301,"correct",1
"SCFzz","2",8,"1","2",543,"correct",0
"SCFzz","2",9,"1","2",495,"correct",0
"SCFzz","2",10,"1","1",550,"incorrect",0
"SCFzz","2",11,"1","1",309,"correct",1
"SCFzz","2",12,"1","1",349,"correct",1
"SCFzz","2",13,"2","1",248,"correct",0
"SCFzz","2",14,"2","2",330,"correct",0
"SCFzz","2",15,"2","2",353,"correct",0
"SCFzz","2",16,"1","2",344,"too slow",NA
"SCFzz","2",17,"2","1",577,"too slow",NA
"SCFzz","2",18,"1","1",294,"correct",1
"SCFzz","2",19,"2","2",321,"correct",0
"SCFzz","2",20,"1","1",268,"correct",1
"SCFzz","2",21,"1","1",326,"correct",1
"SCFzz","2",22,"1","1",393,"correct",1
"SCFzz","2",23,"2","1",418,"correct",0
"SCFzz","2",24,"1","1",511,"correct",1
"SCFzz","2",25,"1","1",382,"correct",1
"SCFzz","2",26,"1","1",312,"correct",1
"SCFzz","2",27,"1","1",346,"correct",1
"SCFzz","2",28,"1","1",292,"correct",1
"SCFzz","2",29,"2","2",311,"correct",0
"SCFzz","2",30,"1","1",379,"correct",1
"SCFzz","2",31,"1","1",296,"correct",1
"SCFzz","2",32,"1","1",265,"correct",1
"SCFzz","2",33,"1","1",372,"correct",1
"SCFzz","2",34,"2","2",279,"correct",0
"SCFzz","2",35,"1","1",320,"correct",1
"SCFzz","2",36,"1","1",322,"correct",1
"SCFzz","2",37,"1","1",266,"correct",1
"SCFzz","2",38,"1","1",339,"correct",1
"SCFzz","2",39,"1","1",356,"correct",1
"SCFzz","2",40,"1","1",289,"correct",1
"SCFzz","2",41,"1","1",326,"correct",1
"SCFzz","2",42,"1","1",356,"correct",1
"SCFzz","2",43,"1","1",408,"correct",1
"SCFzz","2",44,"1","1",286,"correct",1
"SCFzz","2",45,"1","1",321,"correct",1
"SCFzz","2",46,"1","1",279,"correct",1
"SCFzz","2",47,"1","1",272,"correct",1
"SCFzz","2",48,"2","2",242,"correct",0
"SCFzz","2",49,"1","1",303,"correct",1
"SCFzz","2",50,"1","1",357,"correct",1
"SCFzz","2",51,"1","1",331,"correct",1
"SCFzz","2",52,"1","1",250,"correct",1
"SCFzz","2",53,"1","1",243,"correct",1
"SCFzz","2",54,"1","1",267,"correct",1
"SCFzz","2",55,"2","2",249,"correct",0
"SCFzz","2",56,"1","1",275,"correct",1
"SCFzz","2",57,"2","1",300,"correct",0
"SCFzz","2",58,"1","2",492,"correct",0
"SCFzz","2",59,"1","1",545,"correct",1
"SCFzz","2",60,"1","1",337,"correct",1
"SCFzz","2",61,"1","2",494,"correct",0
"SCFzz","2",62,"2","1",311,"correct",0
"SCFzz","2",63,"1","1",299,"correct",1
"SCFzz","2",64,"1","1",316,"correct",1
"SCFzz","2",65,"1","2",379,"correct",0
"SCFzz","2",66,"1","1",314,"correct",1
"SCFzz","2",67,"1","2",424,"correct",0
"SCFzz","2",68,"2","1",296,"correct",0
"SCFzz","2",69,"2","1",358,"correct",0
"SCFzz","2",70,"1","1",356,"correct",1
"SCFzz","2",71,"1","1",472,"correct",1
"SCFzz","2",72,"1","1",306,"correct",1
"SCFzz","2",73,"2","1",235,"correct",0
"SCFzz","2",74,"1","2",493,"correct",0
"SCFzz","2",75,"1","1",696,"correct",1
"SCFzz","2",76,"1","1",403,"correct",1
"SCFzz","2",77,"1","1",314,"correct",1
"SCFzz","2",78,"1","1",339,"correct",1
"SCFzz","2",79,"1","1",313,"correct",1
"SCFzz","2",80,"2","2",306,"correct",0
"SCFzz","2",81,"1","1",265,"correct",1
"SCFzz","2",82,"1","2",555,"correct",0
"SCFzz","2",83,"1","1",382,"correct",1
"SCFzz","2",84,"1","1",409,"correct",1
"SCFzz","2",85,"2","2",317,"correct",0
"SCFzz","2",86,"1","1",264,"correct",1
"SCFzz","2",87,"1","1",329,"correct",1
"SCFzz","2",88,"1","1",318,"correct",1
"SCFzz","2",89,"1","1",280,"correct",1
"SCFzz","2",90,"2","1",273,"correct",0
"SCFzz","2",91,"1","1",272,"correct",1
"SCFzz","2",92,"1","1",322,"correct",1
"SCFzz","2",93,"1","1",284,"correct",1
"SCFzz","2",94,"2","1",239,"correct",0
"SCFzz","2",95,"2","1",281,"correct",0
"SCFzz","2",96,"1","1",303,"correct",1
"SCFzz","2",97,"2","2",467,"correct",0
"SCFzz","2",98,"1","1",304,"correct",1
"SCFzz","2",99,"1","1",286,"correct",1
"SCFzz","2",100,"1","1",565,"correct",1
"SCFzz","2",101,"1","1",517,"correct",1
"SCFzz","2",102,"1","2",459,"correct",0
"SCFzz","2",103,"1","1",353,"correct",1
"SCFzz","2",104,"1","1",449,"correct",1
"SCFzz","2",105,"1","1",266,"correct",1
"SCFzz","2",106,"1","1",304,"correct",1
"SCFzz","2",107,"1","1",283,"correct",1
"SCFzz","2",108,"1","1",271,"correct",1
"SCFzz","2",109,"1","1",322,"correct",1
"SCFzz","2",110,"1","1",331,"correct",1
"SCFzz","2",111,"1","1",354,"correct",1
"SCFzz","2",112,"1","1",271,"correct",1
"SCFzz","2",113,"1","1",270,"correct",1
"SCFzz","2",114,"2","1",248,"correct",0
"SCFzz","2",115,"1","1",297,"correct",1
"SCFzz","2",116,"1","2",490,"incorrect",1
"SCFzz","2",117,"1","1",301,"correct",1
"SCFzz","2",118,"2","2",293,"correct",0
"SCFzz","2",119,"1","1",318,"correct",1
"SCFzz","2",120,"2","2",272,"correct",0
"SCFzz","2",121,"1","1",358,"correct",1
"SCFzz","2",122,"1","1",475,"correct",1
"SCFzz","2",123,"1","1",565,"correct",1
"SCFzz","2",124,"1","1",339,"correct",1
"SCFzz","2",125,"1","1",285,"correct",1
"SCFzz","2",126,"1","1",311,"correct",1
"SCFzz","2",127,"1","2",460,"correct",0
"SCFzz","2",128,"1","1",334,"correct",1
"SCFzz","2",129,"2","2",312,"correct",0
"mPWNL","1",1,"1","1",361,"correct",1
"mPWNL","1",2,"1","1",397,"correct",1
"mPWNL","1",3,"1","1",416,"correct",1
"mPWNL","1",4,"1","1",344,"correct",1
"mPWNL","1",5,"2","1",227,"correct",0
"mPWNL","1",6,"1","1",290,"correct",1
"mPWNL","1",7,"1","1",403,"correct",1
"mPWNL","1",8,"1","2",494,"correct",0
"mPWNL","1",9,"1","1",295,"correct",1
"mPWNL","1",10,"1","1",395,"correct",1
"mPWNL","1",11,"1","1",285,"correct",1
"mPWNL","1",12,"2","1",230,"correct",0
"mPWNL","1",13,"1","1",296,"correct",1
"mPWNL","1",14,"1","2",394,"correct",0
"mPWNL","1",15,"2","2",307,"correct",0
"mPWNL","1",16,"1","1",374,"correct",1
"mPWNL","1",17,"1","1",276,"correct",1
"mPWNL","1",18,"1","1",356,"incorrect",0
"mPWNL","1",19,"1","1",317,"correct",1
"mPWNL","1",20,"1","1",354,"correct",1
"mPWNL","1",21,"1","1",408,"correct",1
"mPWNL","1",22,"1","2",452,"correct",0
"mPWNL","1",23,"1","1",300,"correct",1
"mPWNL","1",24,"1","2",421,"correct",0
"mPWNL","1",25,"1","1",296,"correct",1
"mPWNL","1",26,"2","1",252,"correct",0
"mPWNL","1",27,"1","1",338,"correct",1
"mPWNL","1",28,"1","1",330,"correct",1
"mPWNL","1",29,"2","1",263,"correct",0
"mPWNL","1",30,"1","1",348,"correct",1
"mPWNL","1",31,"1","1",368,"correct",1
"mPWNL","1",32,"1","2",425,"correct",0
"mPWNL","1",33,"2","1",260,"correct",0
"mPWNL","1",34,"1","1",302,"correct",1
"mPWNL","1",35,"2","2",234,"correct",0
"mPWNL","1",36,"1","1",455,"correct",1
"mPWNL","1",37,"1","1",330,"correct",1
"mPWNL","1",38,"1","1",403,"correct",1
"mPWNL","1",39,"1","2",443,"correct",0
"mPWNL","1",40,"1","1",279,"correct",1
"mPWNL","1",41,"1","1",396,"correct",1
"mPWNL","1",42,"1","1",385,"correct",1
"mPWNL","1",43,"2","2",240,"correct",0
"mPWNL","1",44,"1","1",312,"correct",1
"mPWNL","1",45,"1","2",541,"correct",0
"mPWNL","1",46,"2","1",219,"correct",0
"mPWNL","1",47,"1","1",328,"correct",1
"mPWNL","1",48,"1","1",441,"correct",1
"mPWNL","1",49,"1","2",372,"correct",0
"mPWNL","1",50,"1","1",281,"correct",1
"mPWNL","1",51,"1","1",377,"incorrect",0
"mPWNL","1",52,"1","1",274,"correct",1
"mPWNL","1",53,"2","2",250,"correct",0
"mPWNL","1",54,"2","2",241,"correct",0
"mPWNL","1",55,"1","1",406,"correct",1
"mPWNL","1",56,"1","1",503,"correct",1
"mPWNL","1",57,"1","1",373,"correct",1
"mPWNL","1",58,"1","1",368,"correct",1
"mPWNL","1",59,"1","1",481,"correct",1
"mPWNL","1",60,"1","1",408,"correct",1
"mPWNL","1",61,"1","1",473,"correct",1
"mPWNL","1",62,"1","1",445,"correct",1
"mPWNL","1",63,"1","1",380,"correct",1
"mPWNL","1",64,"2","1",253,"correct",0
"mPWNL","1",65,"2","2",273,"correct",0
"mPWNL","1",66,"1","1",333,"correct",1
"mPWNL","1",67,"1","2",462,"incorrect",1
"mPWNL","1",68,"2","1",225,"correct",0
"mPWNL","1",69,"1","1",323,"correct",1
"mPWNL","1",70,"2","2",229,"correct",0
"mPWNL","1",71,"1","1",473,"correct",1
"mPWNL","1",72,"1","2",488,"correct",0
"mPWNL","1",73,"1","1",372,"correct",1
"mPWNL","1",74,"1","1",452,"correct",1
"mPWNL","1",75,"1","1",396,"correct",1
"mPWNL","1",76,"1","1",431,"correct",1
"mPWNL","1",77,"1","1",370,"correct",1
"mPWNL","1",78,"2","1",218,"correct",0
"mPWNL","1",79,"1","1",421,"correct",1
"mPWNL","1",80,"1","1",304,"correct",1
"mPWNL","1",81,"1","1",403,"correct",1
"mPWNL","1",82,"1","1",341,"correct",1
"mPWNL","1",83,"1","1",414,"correct",1
"mPWNL","1",84,"1","1",411,"correct",1
"mPWNL","1",85,"1","1",394,"correct",1
"mPWNL","1",86,"1","1",484,"correct",1
"mPWNL","1",87,"1","1",414,"correct",1
"mPWNL","1",88,"1","1",423,"correct",1
"mPWNL","1",89,"2","1",235,"correct",0
"mPWNL","1",90,"1","1",410,"correct",1
"mPWNL","1",91,"1","1",343,"correct",1
"mPWNL","1",92,"2","2",227,"correct",0
"mPWNL","1",93,"1","2",466,"correct",0
"mPWNL","1",94,"1","1",347,"correct",1
"mPWNL","1",95,"1","1",436,"correct",1
"mPWNL","1",96,"1","1",476,"correct",1
"mPWNL","1",97,"1","2",493,"correct",0
"mPWNL","1",98,"1","1",382,"correct",1
"mPWNL","1",99,"2","2",266,"correct",0
"mPWNL","1",100,"1","1",392,"correct",1
"mPWNL","1",101,"1","1",347,"correct",1
"mPWNL","1",102,"2","2",350,"correct",0
"mPWNL","1",103,"1","1",374,"correct",1
"mPWNL","1",104,"1","1",348,"correct",1
"mPWNL","1",105,"1","1",374,"correct",1
"mPWNL","1",106,"2","1",250,"correct",0
"mPWNL","1",107,"1","1",310,"correct",1
"mPWNL","1",108,"1","1",343,"correct",1
"mPWNL","1",109,"1","1",396,"correct",1
"mPWNL","1",110,"2","2",228,"correct",0
"mPWNL","1",111,"2","2",267,"correct",0
"mPWNL","1",112,"1","1",340,"correct",1
"mPWNL","1",113,"2","2",200,"correct",0
"mPWNL","1",114,"1","1",336,"correct",1
"mPWNL","1",115,"1","1",417,"correct",1
"mPWNL","1",116,"1","2",374,"correct",0
"mPWNL","1",117,"1","1",383,"correct",1
"mPWNL","1",118,"1","1",408,"correct",1
"mPWNL","1",119,"1","1",441,"correct",1
"mPWNL","1",120,"1","1",354,"correct",1
"mPWNL","1",121,"1","1",309,"correct",1
"mPWNL","1",122,"1","1",369,"correct",1
"mPWNL","1",123,"1","1",415,"correct",1
"mPWNL","1",124,"2","1",226,"correct",0
"mPWNL","1",125,"2","1",236,"correct",0
"mPWNL","1",126,"1","1",298,"correct",1
"mPWNL","1",127,"1","1",316,"correct",1
"mPWNL","1",128,"1","1",348,"correct",1
"mPWNL","1",129,"1","1",327,"correct",1
"mPWNL","2",1,"1","2",432,"correct",0
"mPWNL","2",2,"1","1",405,"correct",1
"mPWNL","2",3,"1","1",396,"correct",1
"mPWNL","2",4,"2","1",211,"correct",0
"mPWNL","2",5,"1","1",388,"correct",1
"mPWNL","2",6,"1","1",383,"correct",1
"mPWNL","2",7,"1","1",406,"correct",1
"mPWNL","2",8,"1","2",500,"correct",0
"mPWNL","2",9,"1","2",480,"correct",0
"mPWNL","2",10,"1","1",467,"correct",1
"mPWNL","2",11,"1","1",380,"correct",1
"mPWNL","2",12,"1","1",408,"correct",1
"mPWNL","2",13,"2","1",215,"correct",0
"mPWNL","2",14,"2","2",218,"correct",0
"mPWNL","2",15,"2","2",223,"correct",0
"mPWNL","2",16,"1","2",393,"correct",0
"mPWNL","2",17,"2","1",215,"correct",0
"mPWNL","2",18,"1","1",393,"correct",1
"mPWNL","2",19,"2","2",218,"correct",0
"mPWNL","2",20,"1","1",403,"correct",1
"mPWNL","2",21,"1","1",403,"correct",1
"mPWNL","2",22,"1","1",374,"correct",1
"mPWNL","2",23,"2","1",239,"correct",0
"mPWNL","2",24,"1","1",371,"correct",1
"mPWNL","2",25,"1","1",397,"correct",1
"mPWNL","2",26,"1","1",321,"correct",1
"mPWNL","2",27,"1","1",365,"correct",1
"mPWNL","2",28,"1","1",381,"correct",1
"mPWNL","2",29,"2","2",227,"correct",0
"mPWNL","2",30,"1","1",350,"correct",1
"mPWNL","2",31,"1","1",346,"correct",1
"mPWNL","2",32,"1","1",376,"correct",1
"mPWNL","2",33,"1","1",396,"correct",1
"mPWNL","2",34,"2","2",232,"correct",0
"mPWNL","2",35,"1","1",305,"correct",1
"mPWNL","2",36,"1","1",381,"correct",1
"mPWNL","2",37,"1","1",407,"correct",1
"mPWNL","2",38,"1","1",363,"correct",1
"mPWNL","2",39,"1","1",355,"correct",1
"mPWNL","2",40,"1","1",325,"correct",1
"mPWNL","2",41,"1","1",398,"correct",1
"mPWNL","2",42,"1","1",394,"correct",1
"mPWNL","2",43,"1","1",443,"correct",1
"mPWNL","2",44,"1","1",392,"correct",1
"mPWNL","2",45,"1","1",404,"correct",1
"mPWNL","2",46,"1","1",453,"correct",1
"mPWNL","2",47,"1","1",466,"correct",1
"mPWNL","2",48,"2","2",242,"correct",0
"mPWNL","2",49,"1","1",367,"correct",1
"mPWNL","2",50,"1","1",353,"correct",1
"mPWNL","2",51,"1","1",289,"correct",1
"mPWNL","2",52,"1","1",347,"correct",1
"mPWNL","2",53,"1","1",349,"correct",1
"mPWNL","2",54,"1","1",306,"correct",1
"mPWNL","2",55,"2","2",245,"correct",0
"mPWNL","2",56,"1","1",304,"correct",1
"mPWNL","2",57,"2","1",234,"correct",0
"mPWNL","2",58,"1","2",415,"correct",0
"mPWNL","2",59,"1","1",319,"correct",1
"mPWNL","2",60,"1","1",340,"correct",1
"mPWNL","2",61,"1","2",463,"correct",0
"mPWNL","2",62,"2","1",218,"correct",0
"mPWNL","2",63,"1","1",288,"correct",1
"mPWNL","2",64,"1","1",334,"correct",1
"mPWNL","2",65,"1","2",490,"correct",0
"mPWNL","2",66,"1","1",384,"correct",1
"mPWNL","2",67,"1","2",524,"correct",0
"mPWNL","2",68,"2","1",205,"correct",0
"mPWNL","2",69,"2","1",156,"correct",0
"mPWNL","2",70,"1","1",311,"correct",1
"mPWNL","2",71,"1","1",350,"correct",1
"mPWNL","2",72,"1","1",393,"correct",1
"mPWNL","2",73,"2","1",219,"correct",0
"mPWNL","2",74,"1","2",411,"correct",0
"mPWNL","2",75,"1","1",335,"correct",1
"mPWNL","2",76,"1","1",374,"correct",1
"mPWNL","2",77,"1","1",354,"correct",1
"mPWNL","2",78,"1","1",365,"correct",1
"mPWNL","2",79,"1","1",352,"correct",1
"mPWNL","2",80,"2","2",362,"correct",0
"mPWNL","2",81,"1","1",347,"correct",1
"mPWNL","2",82,"1","2",423,"correct",0
"mPWNL","2",83,"1","1",277,"correct",1
"mPWNL","2",84,"1","1",294,"correct",1
"mPWNL","2",85,"2","2",202,"correct",0
"mPWNL","2",86,"1","1",367,"correct",1
"mPWNL","2",87,"1","1",327,"correct",1
"mPWNL","2",88,"1","1",305,"correct",1
"mPWNL","2",89,"1","1",386,"correct",1
"mPWNL","2",90,"2","1",236,"correct",0
"mPWNL","2",91,"1","1",378,"correct",1
"mPWNL","2",92,"1","1",358,"correct",1
"mPWNL","2",93,"1","1",476,"correct",1
"mPWNL","2",94,"2","1",137,"correct",0
"mPWNL","2",95,"2","1",236,"correct",0
"mPWNL","2",96,"1","1",361,"correct",1
"mPWNL","2",97,"2","2",209,"correct",0
"mPWNL","2",98,"1","1",316,"correct",1
"mPWNL","2",99,"1","1",345,"correct",1
"mPWNL","2",100,"1","1",381,"correct",1
"mPWNL","2",101,"1","1",322,"correct",1
"mPWNL","2",102,"1","2",435,"correct",0
"mPWNL","2",103,"1","1",427,"correct",1
"mPWNL","2",104,"1","1",453,"correct",1
"mPWNL","2",105,"1","1",381,"correct",1
"mPWNL","2",106,"1","1",351,"correct",1
"mPWNL","2",107,"1","1",334,"correct",1
"mPWNL","2",108,"1","1",354,"correct",1
"mPWNL","2",109,"1","1",337,"correct",1
"mPWNL","2",110,"1","1",373,"correct",1
"mPWNL","2",111,"1","1",386,"correct",1
"mPWNL","2",112,"1","1",363,"correct",1
"mPWNL","2",113,"1","1",352,"correct",1
"mPWNL","2",114,"2","1",213,"correct",0
"mPWNL","2",115,"1","1",369,"correct",1
"mPWNL","2",116,"1","2",442,"correct",0
"mPWNL","2",117,"1","1",299,"correct",1
"mPWNL","2",118,"2","2",221,"correct",0
"mPWNL","2",119,"1","1",303,"correct",1
"mPWNL","2",120,"2","2",257,"correct",0
"mPWNL","2",121,"1","1",344,"correct",1
"mPWNL","2",122,"1","1",335,"correct",1
"mPWNL","2",123,"1","1",309,"correct",1
"mPWNL","2",124,"1","1",285,"correct",1
"mPWNL","2",125,"1","1",291,"correct",1
"mPWNL","2",126,"1","1",382,"correct",1
"mPWNL","2",127,"1","2",391,"correct",0
"mPWNL","2",128,"1","1",328,"correct",1
"mPWNL","2",129,"2","2",226,"correct",0
"RNg57","1",1,"1","1",369,"correct",1
"RNg57","1",2,"1","1",448,"correct",1
"RNg57","1",3,"1","1",433,"incorrect",0
"RNg57","1",4,"1","1",412,"correct",1
"RNg57","1",5,"2","1",227,"correct",0
"RNg57","1",6,"1","1",350,"correct",1
"RNg57","1",7,"1","1",515,"correct",1
"RNg57","1",8,"1","2",507,"correct",0
"RNg57","1",9,"1","1",398,"correct",1
"RNg57","1",10,"1","1",456,"correct",1
"RNg57","1",11,"1","1",353,"correct",1
"RNg57","1",12,"2","1",283,"correct",0
"RNg57","1",13,"1","1",351,"correct",1
"RNg57","1",14,"1","2",537,"incorrect",1
"RNg57","1",15,"2","2",202,"correct",0
"RNg57","1",16,"1","1",339,"correct",1
"RNg57","1",17,"1","1",413,"correct",1
"RNg57","1",18,"1","1",416,"correct",1
"RNg57","1",19,"1","1",398,"correct",1
"RNg57","1",20,"1","1",336,"correct",1
"RNg57","1",21,"1","1",427,"correct",1
"RNg57","1",22,"1","2",695,"correct",0
"RNg57","1",23,"1","1",400,"correct",1
"RNg57","1",24,"1","2",0,"too slow",NA
"RNg57","1",25,"1","1",394,"correct",1
"RNg57","1",26,"2","1",249,"correct",0
"RNg57","1",27,"1","1",363,"correct",1
"RNg57","1",28,"1","1",464,"correct",1
"RNg57","1",29,"2","1",245,"correct",0
"RNg57","1",30,"1","1",366,"correct",1
"RNg57","1",31,"1","1",488,"correct",1
"RNg57","1",32,"1","2",580,"correct",0
"RNg57","1",33,"2","1",260,"correct",0
"RNg57","1",34,"1","1",393,"correct",1
"RNg57","1",35,"2","2",208,"correct",0
"RNg57","1",36,"1","1",322,"correct",1
"RNg57","1",37,"1","1",338,"correct",1
"RNg57","1",38,"1","1",591,"correct",1
"RNg57","1",39,"1","2",507,"correct",0
"RNg57","1",40,"1","1",352,"correct",1
"RNg57","1",41,"1","1",344,"correct",1
"RNg57","1",42,"1","1",331,"correct",1
"RNg57","1",43,"2","2",257,"correct",0
"RNg57","1",44,"1","1",489,"correct",1
"RNg57","1",45,"1","2",479,"correct",0
"RNg57","1",46,"2","1",255,"correct",0
"RNg57","1",47,"1","1",488,"correct",1
"RNg57","1",48,"1","1",527,"correct",1
"RNg57","1",49,"1","2",492,"correct",0
"RNg57","1",50,"1","1",310,"correct",1
"RNg57","1",51,"1","1",548,"correct",1
"RNg57","1",52,"1","1",442,"correct",1
"RNg57","1",53,"2","2",255,"correct",0
"RNg57","1",54,"2","2",236,"correct",0
"RNg57","1",55,"1","1",345,"correct",1
"RNg57","1",56,"1","1",484,"correct",1
"RNg57","1",57,"1","1",369,"correct",1
"RNg57","1",58,"1","1",370,"correct",1
"RNg57","1",59,"1","1",444,"correct",1
"RNg57","1",60,"1","1",484,"correct",1
"RNg57","1",61,"1","1",471,"correct",1
"RNg57","1",62,"1","1",449,"correct",1
"RNg57","1",63,"1","1",399,"correct",1
"RNg57","1",64,"2","1",296,"correct",0
"RNg57","1",65,"2","2",267,"correct",0
"RNg57","1",66,"1","1",357,"correct",1
"RNg57","1",67,"1","2",534,"correct",0
"RNg57","1",68,"2","1",203,"correct",0
"RNg57","1",69,"1","1",332,"correct",1
"RNg57","1",70,"2","2",230,"correct",0
"RNg57","1",71,"1","1",354,"correct",1
"RNg57","1",72,"1","2",484,"correct",0
"RNg57","1",73,"1","1",349,"correct",1
"RNg57","1",74,"1","1",447,"correct",1
"RNg57","1",75,"1","1",339,"correct",1
"RNg57","1",76,"1","1",375,"correct",1
"RNg57","1",77,"1","1",378,"correct",1
"RNg57","1",78,"2","1",277,"correct",0
"RNg57","1",79,"1","1",427,"correct",1
"RNg57","1",80,"1","1",326,"correct",1
"RNg57","1",81,"1","1",428,"correct",1
"RNg57","1",82,"1","1",374,"correct",1
"RNg57","1",83,"1","1",352,"correct",1
"RNg57","1",84,"1","1",356,"correct",1
"RNg57","1",85,"1","1",303,"correct",1
"RNg57","1",86,"1","1",410,"correct",1
"RNg57","1",87,"1","1",337,"correct",1
"RNg57","1",88,"1","1",372,"correct",1
"RNg57","1",89,"2","1",246,"correct",0
"RNg57","1",90,"1","1",330,"correct",1
"RNg57","1",91,"1","1",459,"correct",1
"RNg57","1",92,"2","2",193,"correct",0
"RNg57","1",93,"1","2",561,"correct",0
"RNg57","1",94,"1","1",339,"correct",1
"RNg57","1",95,"1","1",370,"correct",1
"RNg57","1",96,"1","1",503,"correct",1
"RNg57","1",97,"1","2",610,"correct",0
"RNg57","1",98,"1","1",396,"correct",1
"RNg57","1",99,"2","2",215,"correct",0
"RNg57","1",100,"1","1",218,"correct",1
"RNg57","1",101,"1","1",547,"correct",1
"RNg57","1",102,"2","2",251,"correct",0
"RNg57","1",103,"1","1",416,"correct",1
"RNg57","1",104,"1","1",305,"correct",1
"RNg57","1",105,"1","1",292,"correct",1
"RNg57","1",106,"2","1",212,"correct",0
"RNg57","1",107,"1","1",335,"correct",1
"RNg57","1",108,"1","1",313,"correct",1
"RNg57","1",109,"1","1",258,"correct",1
"RNg57","1",110,"2","2",256,"correct",0
"RNg57","1",111,"2","2",325,"correct",0
"RNg57","1",112,"1","1",534,"incorrect",0
"RNg57","1",113,"2","2",349,"correct",0
"RNg57","1",114,"1","1",333,"correct",1
"RNg57","1",115,"1","1",274,"correct",1
"RNg57","1",116,"1","2",476,"correct",0
"RNg57","1",117,"1","1",355,"correct",1
"RNg57","1",118,"1","1",414,"correct",1
"RNg57","1",119,"1","1",303,"correct",1
"RNg57","1",120,"1","1",321,"correct",1
"RNg57","1",121,"1","1",398,"correct",1
"RNg57","1",122,"1","1",385,"correct",1
"RNg57","1",123,"1","1",372,"correct",1
"RNg57","1",124,"2","1",376,"correct",0
"RNg57","1",125,"2","1",331,"correct",0
"RNg57","1",126,"1","1",284,"correct",1
"RNg57","1",127,"1","1",309,"correct",1
"RNg57","1",128,"1","1",328,"correct",1
"RNg57","1",129,"1","1",415,"correct",1
"RNg57","2",1,"1","2",369,"too slow",NA
"RNg57","2",2,"1","1",543,"correct",1
"RNg57","2",3,"1","1",377,"correct",1
"RNg57","2",4,"2","1",339,"correct",0
"RNg57","2",5,"1","1",378,"correct",1
"RNg57","2",6,"1","1",325,"correct",1
"RNg57","2",7,"1","1",325,"correct",1
"RNg57","2",8,"1","2",503,"correct",0
"RNg57","2",9,"1","2",552,"correct",0
"RNg57","2",10,"1","1",406,"correct",1
"RNg57","2",11,"1","1",411,"correct",1
"RNg57","2",12,"1","1",292,"correct",1
"RNg57","2",13,"2","1",247,"correct",0
"RNg57","2",14,"2","2",259,"correct",0
"RNg57","2",15,"2","2",255,"correct",0
"RNg57","2",16,"1","2",568,"correct",0
"RNg57","2",17,"2","1",298,"correct",0
"RNg57","2",18,"1","1",272,"correct",1
"RNg57","2",19,"2","2",264,"correct",0
"RNg57","2",20,"1","1",349,"correct",1
"RNg57","2",21,"1","1",351,"correct",1
"RNg57","2",22,"1","1",282,"correct",1
"RNg57","2",23,"2","1",305,"correct",0
"RNg57","2",24,"1","1",389,"correct",1
"RNg57","2",25,"1","1",350,"correct",1
"RNg57","2",26,"1","1",301,"correct",1
"RNg57","2",27,"1","1",359,"correct",1
"RNg57","2",28,"1","1",280,"correct",1
"RNg57","2",29,"2","2",293,"correct",0
"RNg57","2",30,"1","1",393,"correct",1
"RNg57","2",31,"1","1",338,"correct",1
"RNg57","2",32,"1","1",319,"correct",1
"RNg57","2",33,"1","1",450,"correct",1
"RNg57","2",34,"2","2",322,"correct",0
"RNg57","2",35,"1","1",450,"correct",1
"RNg57","2",36,"1","1",287,"correct",1
"RNg57","2",37,"1","1",335,"correct",1
"RNg57","2",38,"1","1",315,"correct",1
"RNg57","2",39,"1","1",330,"correct",1
"RNg57","2",40,"1","1",415,"correct",1
"RNg57","2",41,"1","1",433,"correct",1
"RNg57","2",42,"1","1",276,"correct",1
"RNg57","2",43,"1","1",302,"correct",1
"RNg57","2",44,"1","1",271,"correct",1
"RNg57","2",45,"1","1",439,"correct",1
"RNg57","2",46,"1","1",290,"correct",1
"RNg57","2",47,"1","1",490,"correct",1
"RNg57","2",48,"2","2",366,"correct",0
"RNg57","2",49,"1","1",366,"correct",1
"RNg57","2",50,"1","1",511,"correct",1
"RNg57","2",51,"1","1",399,"correct",1
"RNg57","2",52,"1","1",287,"correct",1
"RNg57","2",53,"1","1",296,"correct",1
"RNg57","2",54,"1","1",278,"correct",1
"RNg57","2",55,"2","2",305,"correct",0
"RNg57","2",56,"1","1",516,"correct",1
"RNg57","2",57,"2","1",268,"correct",0
"RNg57","2",58,"1","2",224,"incorrect",1
"RNg57","2",59,"1","1",364,"correct",1
"RNg57","2",60,"1","1",396,"incorrect",0
"RNg57","2",61,"1","2",533,"correct",0
"RNg57","2",62,"2","1",301,"correct",0
"RNg57","2",63,"1","1",339,"correct",1
"RNg57","2",64,"1","1",340,"correct",1
"RNg57","2",65,"1","2",434,"correct",0
"RNg57","2",66,"1","1",350,"correct",1
"RNg57","2",67,"1","2",485,"correct",0
"RNg57","2",68,"2","1",295,"correct",0
"RNg57","2",69,"2","1",360,"correct",0
"RNg57","2",70,"1","1",334,"correct",1
"RNg57","2",71,"1","1",318,"correct",1
"RNg57","2",72,"1","1",298,"correct",1
"RNg57","2",73,"2","1",253,"correct",0
"RNg57","2",74,"1","2",447,"correct",0
"RNg57","2",75,"1","1",344,"correct",1
"RNg57","2",76,"1","1",379,"correct",1
"RNg57","2",77,"1","1",344,"correct",1
"RNg57","2",78,"1","1",426,"correct",1
"RNg57","2",79,"1","1",295,"correct",1
"RNg57","2",80,"2","2",282,"correct",0
"RNg57","2",81,"1","1",420,"correct",1
"RNg57","2",82,"1","2",548,"correct",0
"RNg57","2",83,"1","1",431,"correct",1
"RNg57","2",84,"1","1",361,"correct",1
"RNg57","2",85,"2","2",302,"correct",0
"RNg57","2",86,"1","1",416,"correct",1
"RNg57","2",87,"1","1",375,"correct",1
"RNg57","2",88,"1","1",375,"correct",1
"RNg57","2",89,"1","1",363,"correct",1
"RNg57","2",90,"2","1",251,"correct",0
"RNg57","2",91,"1","1",346,"correct",1
"RNg57","2",92,"1","1",299,"correct",1
"RNg57","2",93,"1","1",391,"correct",1
"RNg57","2",94,"2","1",338,"correct",0
"RNg57","2",95,"2","1",506,"correct",0
"RNg57","2",96,"1","1",256,"correct",1
"RNg57","2",97,"2","2",314,"correct",0
"RNg57","2",98,"1","1",372,"correct",1
"RNg57","2",99,"1","1",311,"correct",1
"RNg57","2",100,"1","1",336,"correct",1
"RNg57","2",101,"1","1",361,"correct",1
"RNg57","2",102,"1","2",492,"correct",0
"RNg57","2",103,"1","1",373,"correct",1
"RNg57","2",104,"1","1",501,"incorrect",0
"RNg57","2",105,"1","1",415,"correct",1
"RNg57","2",106,"1","1",482,"correct",1
"RNg57","2",107,"1","1",412,"correct",1
"RNg57","2",108,"1","1",422,"correct",1
"RNg57","2",109,"1","1",308,"correct",1
"RNg57","2",110,"1","1",313,"correct",1
"RNg57","2",111,"1","1",382,"correct",1
"RNg57","2",112,"1","1",353,"correct",1
"RNg57","2",113,"1","1",293,"correct",1
"RNg57","2",114,"2","1",237,"correct",0
"RNg57","2",115,"1","1",319,"correct",1
"RNg57","2",116,"1","2",514,"correct",0
"RNg57","2",117,"1","1",324,"correct",1
"RNg57","2",118,"2","2",277,"correct",0
"RNg57","2",119,"1","1",312,"correct",1
"RNg57","2",120,"2","2",219,"correct",0
"RNg57","2",121,"1","1",306,"correct",1
"RNg57","2",122,"1","1",410,"correct",1
"RNg57","2",123,"1","1",289,"correct",1
"RNg57","2",124,"1","1",384,"correct",1
"RNg57","2",125,"1","1",336,"correct",1
"RNg57","2",126,"1","1",321,"correct",1
"RNg57","2",127,"1","2",354,"incorrect",1
"RNg57","2",128,"1","1",328,"too slow",1
"RNg57","2",129,"2","2",237,"correct",0
"F252w","1",1,"1","1",262,"correct",1
"F252w","1",2,"1","1",269,"correct",1
"F252w","1",3,"1","1",246,"correct",1
"F252w","1",4,"1","1",272,"correct",1
"F252w","1",5,"2","1",656,"correct",0
"F252w","1",6,"1","1",425,"correct",1
"F252w","1",7,"1","1",522,"correct",1
"F252w","1",8,"1","2",562,"correct",0
"F252w","1",9,"1","1",725,"correct",1
"F252w","1",10,"1","1",302,"correct",1
"F252w","1",11,"1","1",342,"correct",1
"F252w","1",12,"2","1",300,"correct",0
"F252w","1",13,"1","1",488,"correct",1
"F252w","1",14,"1","2",288,"correct",0
"F252w","1",15,"2","2",221,"correct",0
"F252w","1",16,"1","1",396,"correct",1
"F252w","1",17,"1","1",450,"correct",1
"F252w","1",18,"1","1",440,"correct",1
"F252w","1",19,"1","1",350,"correct",1
"F252w","1",20,"1","1",317,"correct",1
"F252w","1",21,"1","1",297,"correct",1
"F252w","1",22,"1","2",425,"correct",0
"F252w","1",23,"1","1",417,"correct",1
"F252w","1",24,"1","2",530,"correct",0
"F252w","1",25,"1","1",536,"correct",1
"F252w","1",26,"2","1",0,"too slow",NA
"F252w","1",27,"1","1",474,"correct",1
"F252w","1",28,"1","1",292,"correct",1
"F252w","1",29,"2","1",273,"correct",0
"F252w","1",30,"1","1",274,"correct",1
"F252w","1",31,"1","1",295,"correct",1
"F252w","1",32,"1","2",423,"correct",0
"F252w","1",33,"2","1",447,"correct",0
"F252w","1",34,"1","1",322,"correct",1
"F252w","1",35,"2","2",358,"correct",0
"F252w","1",36,"1","1",497,"correct",1
"F252w","1",37,"1","1",0,"too slow",1
"F252w","1",38,"1","1",338,"correct",1
"F252w","1",39,"1","2",460,"correct",0
"F252w","1",40,"1","1",340,"correct",1
"F252w","1",41,"1","1",368,"correct",1
"F252w","1",42,"1","1",444,"correct",1
"F252w","1",43,"2","2",567,"correct",0
"F252w","1",44,"1","1",388,"correct",1
"F252w","1",45,"1","2",494,"correct",0
"F252w","1",46,"2","1",638,"correct",0
"F252w","1",47,"1","1",544,"correct",1
"F252w","1",48,"1","1",642,"correct",1
"F252w","1",49,"1","2",516,"correct",0
"F252w","1",50,"1","1",459,"correct",1
"F252w","1",51,"1","1",507,"correct",1
"F252w","1",52,"1","1",543,"correct",1
"F252w","1",53,"2","2",0,"too slow",NA
"F252w","1",54,"2","2",551,"correct",0
"F252w","1",55,"1","1",369,"correct",1
"F252w","1",56,"1","1",462,"incorrect",0
"F252w","1",57,"1","1",590,"correct",1
"F252w","1",58,"1","1",466,"correct",1
"F252w","1",59,"1","1",437,"correct",1
"F252w","1",60,"1","1",394,"correct",1
"F252w","1",61,"1","1",379,"correct",1
"F252w","1",62,"1","1",308,"correct",1
"F252w","1",63,"1","1",234,"correct",1
"F252w","1",64,"2","1",517,"correct",0
"F252w","1",65,"2","2",466,"correct",0
"F252w","1",66,"1","1",730,"correct",1
"F252w","1",67,"1","2",492,"correct",0
"F252w","1",68,"2","1",237,"correct",0
"F252w","1",69,"1","1",381,"correct",1
"F252w","1",70,"2","2",500,"correct",0
"F252w","1",71,"1","1",450,"correct",1
"F252w","1",72,"1","2",627,"correct",0
"F252w","1",73,"1","1",620,"correct",1
"F252w","1",74,"1","1",540,"correct",1
"F252w","1",75,"1","1",422,"correct",1
"F252w","1",76,"1","1",0,"too slow",1
"F252w","1",77,"1","1",539,"correct",1
"F252w","1",78,"2","1",0,"too slow",NA
"F252w","1",79,"1","1",225,"correct",1
"F252w","1",80,"1","1",266,"correct",1
"F252w","1",81,"1","1",316,"correct",1
"F252w","1",82,"1","1",311,"correct",1
"F252w","1",83,"1","1",370,"correct",1
"F252w","1",84,"1","1",328,"correct",1
"F252w","1",85,"1","1",224,"correct",1
"F252w","1",86,"1","1",304,"correct",1
"F252w","1",87,"1","1",291,"correct",1
"F252w","1",88,"1","1",369,"correct",1
"F252w","1",89,"2","1",473,"incorrect",1
"F252w","1",90,"1","1",337,"correct",1
"F252w","1",91,"1","1",397,"correct",1
"F252w","1",92,"2","2",265,"correct",0
"F252w","1",93,"1","2",582,"correct",0
"F252w","1",94,"1","1",459,"correct",1
"F252w","1",95,"1","1",407,"correct",1
"F252w","1",96,"1","1",325,"correct",1
"F252w","1",97,"1","2",404,"correct",0
"F252w","1",98,"1","1",308,"correct",1
"F252w","1",99,"2","2",239,"correct",0
"F252w","1",100,"1","1",486,"correct",1
"F252w","1",101,"1","1",297,"correct",1
"F252w","1",102,"2","2",198,"correct",0
"F252w","1",103,"1","1",224,"correct",1
"F252w","1",104,"1","1",377,"correct",1
"F252w","1",105,"1","1",381,"correct",1
"F252w","1",106,"2","1",222,"correct",0
"F252w","1",107,"1","1",266,"correct",1
"F252w","1",108,"1","1",276,"correct",1
"F252w","1",109,"1","1",343,"correct",1
"F252w","1",110,"2","2",320,"correct",0
"F252w","1",111,"2","2",511,"correct",0
"F252w","1",112,"1","1",378,"correct",1
"F252w","1",113,"2","2",524,"correct",0
"F252w","1",114,"1","1",525,"correct",1
"F252w","1",115,"1","1",431,"correct",1
"F252w","1",116,"1","2",522,"correct",0
"F252w","1",117,"1","1",393,"correct",1
"F252w","1",118,"1","1",270,"correct",1
"F252w","1",119,"1","1",437,"correct",1
"F252w","1",120,"1","1",393,"correct",1
"F252w","1",121,"1","1",301,"correct",1
"F252w","1",122,"1","1",449,"correct",1
"F252w","1",123,"1","1",468,"correct",1
"F252w","1",124,"2","1",370,"correct",0
"F252w","1",125,"2","1",297,"correct",0
"F252w","1",126,"1","1",489,"correct",1
"F252w","1",127,"1","1",461,"correct",1
"F252w","1",128,"1","1",354,"correct",1
"F252w","1",129,"1","1",443,"correct",1
"F252w","2",1,"1","2",347,"incorrect",1
"F252w","2",2,"1","1",335,"correct",1
"F252w","2",3,"1","1",288,"correct",1
"F252w","2",4,"2","1",364,"correct",0
"F252w","2",5,"1","1",386,"correct",1
"F252w","2",6,"1","1",425,"too slow",1
"F252w","2",7,"1","1",522,"too slow",1
"F252w","2",8,"1","2",502,"correct",0
"F252w","2",9,"1","2",520,"correct",0
"F252w","2",10,"1","1",497,"incorrect",0
"F252w","2",11,"1","1",380,"correct",1
"F252w","2",12,"1","1",356,"correct",1
"F252w","2",13,"2","1",491,"correct",0
"F252w","2",14,"2","2",409,"correct",0
"F252w","2",15,"2","2",370,"correct",0
"F252w","2",16,"1","2",483,"correct",0
"F252w","2",17,"2","1",216,"correct",0
"F252w","2",18,"1","1",723,"incorrect",0
"F252w","2",19,"2","2",438,"correct",0
"F252w","2",20,"1","1",469,"correct",1
"F252w","2",21,"1","1",479,"correct",1
"F252w","2",22,"1","1",424,"correct",1
"F252w","2",23,"2","1",297,"correct",0
"F252w","2",24,"1","1",361,"correct",1
"F252w","2",25,"1","1",559,"correct",1
"F252w","2",26,"1","1",448,"correct",1
"F252w","2",27,"1","1",426,"correct",1
"F252w","2",28,"1","1",638,"correct",1
"F252w","2",29,"2","2",256,"correct",0
"F252w","2",30,"1","1",273,"correct",1
"F252w","2",31,"1","1",354,"correct",1
"F252w","2",32,"1","1",525,"correct",1
"F252w","2",33,"1","1",477,"correct",1
"F252w","2",34,"2","2",234,"correct",0
"F252w","2",35,"1","1",387,"correct",1
"F252w","2",36,"1","1",303,"correct",1
"F252w","2",37,"1","1",376,"correct",1
"F252w","2",38,"1","1",379,"correct",1
"F252w","2",39,"1","1",349,"correct",1
"F252w","2",40,"1","1",301,"correct",1
"F252w","2",41,"1","1",278,"correct",1
"F252w","2",42,"1","1",346,"correct",1
"F252w","2",43,"1","1",307,"correct",1
"F252w","2",44,"1","1",264,"correct",1
"F252w","2",45,"1","1",404,"correct",1
"F252w","2",46,"1","1",386,"correct",1
"F252w","2",47,"1","1",312,"correct",1
"F252w","2",48,"2","2",295,"correct",0
"F252w","2",49,"1","1",228,"correct",1
"F252w","2",50,"1","1",401,"correct",1
"F252w","2",51,"1","1",368,"correct",1
"F252w","2",52,"1","1",404,"correct",1
"F252w","2",53,"1","1",316,"correct",1
"F252w","2",54,"1","1",234,"correct",1
"F252w","2",55,"2","2",386,"correct",0
"F252w","2",56,"1","1",235,"correct",1
"F252w","2",57,"2","1",333,"correct",0
"F252w","2",58,"1","2",488,"correct",0
"F252w","2",59,"1","1",244,"correct",1
"F252w","2",60,"1","1",365,"correct",1
"F252w","2",61,"1","2",292,"incorrect",1
"F252w","2",62,"2","1",236,"correct",0
"F252w","2",63,"1","1",295,"correct",1
"F252w","2",64,"1","1",324,"correct",1
"F252w","2",65,"1","2",453,"correct",0
"F252w","2",66,"1","1",485,"correct",1
"F252w","2",67,"1","2",536,"correct",0
"F252w","2",68,"2","1",538,"correct",0
"F252w","2",69,"2","1",381,"too slow",NA
"F252w","2",70,"1","1",303,"correct",1
"F252w","2",71,"1","1",338,"correct",1
"F252w","2",72,"1","1",292,"correct",1
"F252w","2",73,"2","1",192,"correct",0
"F252w","2",74,"1","2",216,"incorrect",1
"F252w","2",75,"1","1",361,"incorrect",0
"F252w","2",76,"1","1",336,"correct",1
"F252w","2",77,"1","1",420,"correct",1
"F252w","2",78,"1","1",267,"correct",1
"F252w","2",79,"1","1",247,"correct",1
"F252w","2",80,"2","2",227,"correct",0
"F252w","2",81,"1","1",446,"correct",1
"F252w","2",82,"1","2",392,"correct",0
"F252w","2",83,"1","1",551,"correct",1
"F252w","2",84,"1","1",328,"too slow",1
"F252w","2",85,"2","2",443,"correct",0
"F252w","2",86,"1","1",510,"correct",1
"F252w","2",87,"1","1",428,"correct",1
"F252w","2",88,"1","1",405,"correct",1
"F252w","2",89,"1","1",343,"correct",1
"F252w","2",90,"2","1",286,"correct",0
"F252w","2",91,"1","1",370,"correct",1
"F252w","2",92,"1","1",405,"correct",1
"F252w","2",93,"1","1",582,"too slow",1
"F252w","2",94,"2","1",424,"correct",0
"F252w","2",95,"2","1",411,"correct",0
"F252w","2",96,"1","1",358,"correct",1
"F252w","2",97,"2","2",298,"correct",0
"F252w","2",98,"1","1",305,"correct",1
"F252w","2",99,"1","1",280,"correct",1
"F252w","2",100,"1","1",273,"correct",1
"F252w","2",101,"1","1",332,"correct",1
"F252w","2",102,"1","2",501,"correct",0
"F252w","2",103,"1","1",255,"correct",1
"F252w","2",104,"1","1",233,"correct",1
"F252w","2",105,"1","1",299,"correct",1
"F252w","2",106,"1","1",420,"correct",1
"F252w","2",107,"1","1",228,"correct",1
"F252w","2",108,"1","1",333,"correct",1
"F252w","2",109,"1","1",231,"correct",1
"F252w","2",110,"1","1",553,"correct",1
"F252w","2",111,"1","1",322,"correct",1
"F252w","2",112,"1","1",416,"correct",1
"F252w","2",113,"1","1",235,"correct",1
"F252w","2",114,"2","1",426,"incorrect",1
"F252w","2",115,"1","1",505,"correct",1
"F252w","2",116,"1","2",573,"correct",0
"F252w","2",117,"1","1",343,"correct",1
"F252w","2",118,"2","2",608,"correct",0
"F252w","2",119,"1","1",247,"correct",1
"F252w","2",120,"2","2",473,"correct",0
"F252w","2",121,"1","1",456,"correct",1
"F252w","2",122,"1","1",326,"correct",1
"F252w","2",123,"1","1",468,"too slow",1
"F252w","2",124,"1","1",387,"correct",1
"F252w","2",125,"1","1",393,"correct",1
"F252w","2",126,"1","1",241,"correct",1
"F252w","2",127,"1","2",687,"correct",0
"F252w","2",128,"1","1",296,"correct",1
"F252w","2",129,"2","2",597,"correct",0
"3WBbQ","1",1,"1","1",329,"correct",1
"3WBbQ","1",2,"1","1",425,"incorrect",0
"3WBbQ","1",3,"1","1",295,"correct",1
"3WBbQ","1",4,"1","1",369,"correct",1
"3WBbQ","1",5,"2","1",220,"correct",0
"3WBbQ","1",6,"1","1",277,"correct",1
"3WBbQ","1",7,"1","1",504,"correct",1
"3WBbQ","1",8,"1","2",579,"correct",0
"3WBbQ","1",9,"1","1",604,"correct",1
"3WBbQ","1",10,"1","1",526,"correct",1
"3WBbQ","1",11,"1","1",460,"correct",1
"3WBbQ","1",12,"2","1",220,"correct",0
"3WBbQ","1",13,"1","1",336,"correct",1
"3WBbQ","1",14,"1","2",414,"correct",0
"3WBbQ","1",15,"2","2",192,"correct",0
"3WBbQ","1",16,"1","1",237,"correct",1
"3WBbQ","1",17,"1","1",594,"correct",1
"3WBbQ","1",18,"1","1",453,"correct",1
"3WBbQ","1",19,"1","1",284,"correct",1
"3WBbQ","1",20,"1","1",464,"correct",1
"3WBbQ","1",21,"1","1",327,"correct",1
"3WBbQ","1",22,"1","2",634,"correct",0
"3WBbQ","1",23,"1","1",605,"correct",1
"3WBbQ","1",24,"1","2",437,"correct",0
"3WBbQ","1",25,"1","1",390,"correct",1
"3WBbQ","1",26,"2","1",225,"correct",0
"3WBbQ","1",27,"1","1",493,"incorrect",0
"3WBbQ","1",28,"1","1",332,"correct",1
"3WBbQ","1",29,"2","1",224,"correct",0
"3WBbQ","1",30,"1","1",305,"correct",1
"3WBbQ","1",31,"1","1",470,"correct",1
"3WBbQ","1",32,"1","2",455,"incorrect",1
"3WBbQ","1",33,"2","1",212,"correct",0
"3WBbQ","1",34,"1","1",269,"correct",1
"3WBbQ","1",35,"2","2",28,"correct",0
"3WBbQ","1",36,"1","1",244,"correct",1
"3WBbQ","1",37,"1","1",319,"correct",1
"3WBbQ","1",38,"1","1",457,"correct",1
"3WBbQ","1",39,"1","2",294,"correct",0
"3WBbQ","1",40,"1","1",312,"correct",1
"3WBbQ","1",41,"1","1",296,"correct",1
"3WBbQ","1",42,"1","1",286,"correct",1
"3WBbQ","1",43,"2","2",200,"correct",0
"3WBbQ","1",44,"1","1",278,"correct",1
"3WBbQ","1",45,"1","2",493,"correct",0
"3WBbQ","1",46,"2","1",10,"incorrect",1
"3WBbQ","1",47,"1","1",241,"correct",1
"3WBbQ","1",48,"1","1",478,"correct",1
"3WBbQ","1",49,"1","2",333,"incorrect",1
"3WBbQ","1",50,"1","1",667,"correct",1
"3WBbQ","1",51,"1","1",453,"correct",1
"3WBbQ","1",52,"1","1",424,"correct",1
"3WBbQ","1",53,"2","2",184,"correct",0
"3WBbQ","1",54,"2","2",238,"correct",0
"3WBbQ","1",55,"1","1",288,"correct",1
"3WBbQ","1",56,"1","1",338,"correct",1
"3WBbQ","1",57,"1","1",304,"correct",1
"3WBbQ","1",58,"1","1",347,"correct",1
"3WBbQ","1",59,"1","1",410,"correct",1
"3WBbQ","1",60,"1","1",227,"correct",1
"3WBbQ","1",61,"1","1",322,"correct",1
"3WBbQ","1",62,"1","1",275,"correct",1
"3WBbQ","1",63,"1","1",305,"correct",1
"3WBbQ","1",64,"2","1",188,"correct",0
"3WBbQ","1",65,"2","2",208,"correct",0
"3WBbQ","1",66,"1","1",300,"correct",1
"3WBbQ","1",67,"1","2",260,"incorrect",1
"3WBbQ","1",68,"2","1",178,"correct",0
"3WBbQ","1",69,"1","1",306,"correct",1
"3WBbQ","1",70,"2","2",238,"correct",0
"3WBbQ","1",71,"1","1",234,"correct",1
"3WBbQ","1",72,"1","2",544,"correct",0
"3WBbQ","1",73,"1","1",310,"correct",1
"3WBbQ","1",74,"1","1",311,"correct",1
"3WBbQ","1",75,"1","1",304,"correct",1
"3WBbQ","1",76,"1","1",359,"correct",1
"3WBbQ","1",77,"1","1",330,"correct",1
"3WBbQ","1",78,"2","1",189,"correct",0
"3WBbQ","1",79,"1","1",537,"correct",1
"3WBbQ","1",80,"1","1",348,"correct",1
"3WBbQ","1",81,"1","1",316,"correct",1
"3WBbQ","1",82,"1","1",318,"correct",1
"3WBbQ","1",83,"1","1",275,"correct",1
"3WBbQ","1",84,"1","1",344,"correct",1
"3WBbQ","1",85,"1","1",340,"correct",1
"3WBbQ","1",86,"1","1",361,"correct",1
"3WBbQ","1",87,"1","1",338,"correct",1
"3WBbQ","1",88,"1","1",300,"correct",1
"3WBbQ","1",89,"2","1",173,"correct",0
"3WBbQ","1",90,"1","1",274,"correct",1
"3WBbQ","1",91,"1","1",256,"correct",1
"3WBbQ","1",92,"2","2",0,"incorrect",1
"3WBbQ","1",93,"1","2",501,"correct",0
"3WBbQ","1",94,"1","1",255,"correct",1
"3WBbQ","1",95,"1","1",244,"correct",1
"3WBbQ","1",96,"1","1",364,"correct",1
"3WBbQ","1",97,"1","2",583,"correct",0
"3WBbQ","1",98,"1","1",448,"correct",1
"3WBbQ","1",99,"2","2",272,"correct",0
"3WBbQ","1",100,"1","1",291,"correct",1
"3WBbQ","1",101,"1","1",448,"correct",1
"3WBbQ","1",102,"2","2",50,"correct",0
"3WBbQ","1",103,"1","1",322,"correct",1
"3WBbQ","1",104,"1","1",427,"correct",1
"3WBbQ","1",105,"1","1",358,"correct",1
"3WBbQ","1",106,"2","1",228,"correct",0
"3WBbQ","1",107,"1","1",358,"correct",1
"3WBbQ","1",108,"1","1",330,"correct",1
"3WBbQ","1",109,"1","1",495,"correct",1
"3WBbQ","1",110,"2","2",239,"correct",0
"3WBbQ","1",111,"2","2",246,"correct",0
"3WBbQ","1",112,"1","1",223,"correct",1
"3WBbQ","1",113,"2","2",200,"correct",0
"3WBbQ","1",114,"1","1",249,"correct",1
"3WBbQ","1",115,"1","1",651,"correct",1
"3WBbQ","1",116,"1","2",351,"incorrect",1
"3WBbQ","1",117,"1","1",237,"correct",1
"3WBbQ","1",118,"1","1",275,"correct",1
"3WBbQ","1",119,"1","1",251,"correct",1
"3WBbQ","1",120,"1","1",283,"correct",1
"3WBbQ","1",121,"1","1",340,"correct",1
"3WBbQ","1",122,"1","1",280,"correct",1
"3WBbQ","1",123,"1","1",321,"correct",1
"3WBbQ","1",124,"2","1",212,"correct",0
"3WBbQ","1",125,"2","1",217,"correct",0
"3WBbQ","1",126,"1","1",345,"correct",1
"3WBbQ","1",127,"1","1",306,"correct",1
"3WBbQ","1",128,"1","1",458,"correct",1
"3WBbQ","1",129,"1","1",350,"correct",1
"3WBbQ","2",1,"1","2",310,"incorrect",1
"3WBbQ","2",2,"1","1",425,"too slow",1
"3WBbQ","2",3,"1","1",295,"too slow",1
"3WBbQ","2",4,"2","1",369,"too slow",NA
"3WBbQ","2",5,"1","1",433,"correct",1
"3WBbQ","2",6,"1","1",299,"correct",1
"3WBbQ","2",7,"1","1",325,"correct",1
"3WBbQ","2",8,"1","2",579,"too slow",NA
"3WBbQ","2",9,"1","2",510,"correct",0
"3WBbQ","2",10,"1","1",369,"correct",1
"3WBbQ","2",11,"1","1",269,"correct",1
"3WBbQ","2",12,"1","1",258,"correct",1
"3WBbQ","2",13,"2","1",160,"correct",0
"3WBbQ","2",14,"2","2",191,"correct",0
"3WBbQ","2",15,"2","2",232,"correct",0
"3WBbQ","2",16,"1","2",254,"incorrect",1
"3WBbQ","2",17,"2","1",0,"incorrect",1
"3WBbQ","2",18,"1","1",529,"correct",1
"3WBbQ","2",19,"2","2",231,"correct",0
"3WBbQ","2",20,"1","1",314,"correct",1
"3WBbQ","2",21,"1","1",423,"correct",1
"3WBbQ","2",22,"1","1",264,"correct",1
"3WBbQ","2",23,"2","1",17,"correct",0
"3WBbQ","2",24,"1","1",204,"correct",1
"3WBbQ","2",25,"1","1",305,"correct",1
"3WBbQ","2",26,"1","1",270,"correct",1
"3WBbQ","2",27,"1","1",224,"correct",1
"3WBbQ","2",28,"1","1",233,"correct",1
"3WBbQ","2",29,"2","2",186,"correct",0
"3WBbQ","2",30,"1","1",312,"correct",1
"3WBbQ","2",31,"1","1",464,"correct",1
"3WBbQ","2",32,"1","1",235,"correct",1
"3WBbQ","2",33,"1","1",339,"correct",1
"3WBbQ","2",34,"2","2",220,"correct",0
"3WBbQ","2",35,"1","1",238,"correct",1
"3WBbQ","2",36,"1","1",244,"too slow",1
"3WBbQ","2",37,"1","1",254,"correct",1
"3WBbQ","2",38,"1","1",430,"correct",1
"3WBbQ","2",39,"1","1",319,"correct",1
"3WBbQ","2",40,"1","1",246,"correct",1
"3WBbQ","2",41,"1","1",425,"correct",1
"3WBbQ","2",42,"1","1",240,"correct",1
"3WBbQ","2",43,"1","1",352,"incorrect",0
"3WBbQ","2",44,"1","1",246,"correct",1
"3WBbQ","2",45,"1","1",543,"correct",1
"3WBbQ","2",46,"1","1",325,"correct",1
"3WBbQ","2",47,"1","1",242,"correct",1
"3WBbQ","2",48,"2","2",163,"correct",0
"3WBbQ","2",49,"1","1",252,"correct",1
"3WBbQ","2",50,"1","1",320,"incorrect",0
"3WBbQ","2",51,"1","1",232,"correct",1
"3WBbQ","2",52,"1","1",245,"correct",1
"3WBbQ","2",53,"1","1",194,"correct",1
"3WBbQ","2",54,"1","1",213,"correct",1
"3WBbQ","2",55,"2","2",200,"correct",0
"3WBbQ","2",56,"1","1",316,"correct",1
"3WBbQ","2",57,"2","1",224,"correct",0
"3WBbQ","2",58,"1","2",335,"incorrect",1
"3WBbQ","2",59,"1","1",0,"incorrect",0
"3WBbQ","2",60,"1","1",308,"correct",1
"3WBbQ","2",61,"1","2",405,"incorrect",1
"3WBbQ","2",62,"2","1",0,"incorrect",1
"3WBbQ","2",63,"1","1",338,"incorrect",0
"3WBbQ","2",64,"1","1",334,"correct",1
"3WBbQ","2",65,"1","2",490,"correct",0
"3WBbQ","2",66,"1","1",390,"correct",1
"3WBbQ","2",67,"1","2",356,"incorrect",1
"3WBbQ","2",68,"2","1",220,"correct",0
"3WBbQ","2",69,"2","1",214,"correct",0
"3WBbQ","2",70,"1","1",541,"correct",1
"3WBbQ","2",71,"1","1",327,"correct",1
"3WBbQ","2",72,"1","1",313,"incorrect",0
"3WBbQ","2",73,"2","1",197,"correct",0
"3WBbQ","2",74,"1","2",648,"incorrect",1
"3WBbQ","2",75,"1","1",309,"correct",1
"3WBbQ","2",76,"1","1",593,"correct",1
"3WBbQ","2",77,"1","1",748,"incorrect",0
"3WBbQ","2",78,"1","1",352,"correct",1
"3WBbQ","2",79,"1","1",395,"correct",1
"3WBbQ","2",80,"2","2",214,"correct",0
"3WBbQ","2",81,"1","1",417,"correct",1
"3WBbQ","2",82,"1","2",318,"too slow",NA
"3WBbQ","2",83,"1","1",558,"correct",1
"3WBbQ","2",84,"1","1",278,"correct",1
"3WBbQ","2",85,"2","2",174,"correct",0
"3WBbQ","2",86,"1","1",662,"correct",1
"3WBbQ","2",87,"1","1",349,"correct",1
"3WBbQ","2",88,"1","1",215,"correct",1
"3WBbQ","2",89,"1","1",386,"correct",1
"3WBbQ","2",90,"2","1",178,"correct",0
"3WBbQ","2",91,"1","1",328,"correct",1
"3WBbQ","2",92,"1","1",296,"incorrect",0
"3WBbQ","2",93,"1","1",288,"correct",1
"3WBbQ","2",94,"2","1",185,"correct",0
"3WBbQ","2",95,"2","1",147,"correct",0
"3WBbQ","2",96,"1","1",502,"correct",1
