"subject","block","trial","stim_1","stim_2","rt","reaction","response"
"zPiRR","1",1,"1","1",336,"Correct",1
"zPiRR","1",2,"1","1",430,"Correct",1
"zPiRR","1",3,"1","1",430,"Correct",1
"zPiRR","1",4,"1","1",309,"Correct",1
"zPiRR","1",5,"2","1",253,"Correct",0
"zPiRR","1",6,"1","1",386,"Correct",1
"zPiRR","1",7,"1","1",275,"Correct",1
"zPiRR","1",8,"1","2",339,"Incorrect",1
"zPiRR","1",9,"1","1",368,"Correct",1
"zPiRR","1",10,"1","1",469,"Correct",1
"zPiRR","1",11,"1","1",366,"Correct",1
"zPiRR","1",12,"2","1",287,"Correct",0
"zPiRR","1",13,"1","1",441,"Correct",1
"zPiRR","1",14,"1","2",593,"Correct",0
"zPiRR","1",15,"2","2",326,"Correct",0
"zPiRR","1",16,"1","1",372,"Correct",1
"zPiRR","1",17,"1","1",329,"Correct",1
"zPiRR","1",18,"1","1",399,"Correct",1
"zPiRR","1",19,"1","1",429,"Correct",1
"zPiRR","1",20,"1","1",343,"Correct",1
"zPiRR","1",21,"1","1",423,"Correct",1
"zPiRR","1",22,"1","2",488,"Correct",0
"zPiRR","1",23,"1","1",427,"Correct",1
"zPiRR","1",24,"1","2",480,"Correct",0
"zPiRR","1",25,"1","1",414,"Correct",1
"zPiRR","1",26,"2","1",284,"Correct",0
"zPiRR","1",27,"1","1",361,"Correct",1
"zPiRR","1",28,"1","1",425,"Correct",1
"zPiRR","1",29,"2","1",312,"Correct",0
"zPiRR","1",30,"1","1",330,"Correct",1
"zPiRR","1",31,"1","1",460,"Correct",1
"zPiRR","1",32,"1","2",451,"Correct",0
"zPiRR","1",33,"2","1",351,"Correct",0
"zPiRR","1",34,"1","1",362,"Correct",1
"zPiRR","1",35,"2","2",405,"Correct",0
"zPiRR","1",36,"1","1",354,"Correct",1
"zPiRR","1",37,"1","1",406,"Correct",1
"zPiRR","1",38,"1","1",426,"Correct",1
"zPiRR","1",39,"1","2",558,"Correct",0
"zPiRR","1",40,"1","1",455,"Correct",1
"zPiRR","1",41,"1","1",484,"Correct",1
"zPiRR","1",42,"1","1",525,"Correct",1
"zPiRR","1",43,"2","2",381,"Correct",0
"zPiRR","1",44,"1","1",510,"Correct",1
"zPiRR","1",45,"1","2",746,"Correct",0
"zPiRR","1",46,"2","1",325,"Correct",0
"zPiRR","1",47,"1","1",350,"Correct",1
"zPiRR","1",48,"1","1",406,"Correct",1
"zPiRR","1",49,"1","2",526,"Correct",0
"zPiRR","1",50,"1","1",408,"Correct",1
"zPiRR","1",51,"1","1",373,"Correct",1
"zPiRR","1",52,"1","1",331,"Correct",1
"zPiRR","1",53,"2","2",294,"Correct",0
"zPiRR","1",54,"2","2",267,"Correct",0
"zPiRR","1",55,"1","1",354,"Correct",1
"zPiRR","1",56,"1","1",420,"Correct",1
"zPiRR","1",57,"1","1",356,"Correct",1
"zPiRR","1",58,"1","1",394,"Correct",1
"zPiRR","1",59,"1","1",369,"Correct",1
"zPiRR","1",60,"1","1",346,"Correct",1
"zPiRR","1",61,"1","1",358,"Correct",1
"zPiRR","1",62,"1","1",366,"Correct",1
"zPiRR","1",63,"1","1",556,"Correct",1
"zPiRR","1",64,"2","1",314,"Correct",0
"zPiRR","1",65,"2","2",563,"Correct",0
"zPiRR","1",66,"1","1",431,"Correct",1
"zPiRR","1",67,"1","2",522,"Correct",0
"zPiRR","1",68,"2","1",254,"Correct",0
"zPiRR","1",69,"1","1",348,"Correct",1
"zPiRR","1",70,"2","2",308,"Correct",0
"zPiRR","1",71,"1","1",417,"Correct",1
"zPiRR","1",72,"1","2",517,"Correct",0
"zPiRR","1",73,"1","1",663,"Correct",1
"zPiRR","1",74,"1","1",398,"Correct",1
"zPiRR","1",75,"1","1",408,"Correct",1
"zPiRR","1",76,"1","1",417,"Correct",1
"zPiRR","1",77,"1","1",357,"Correct",1
"zPiRR","1",78,"2","1",359,"Correct",0
"zPiRR","1",79,"1","1",642,"Correct",1
"zPiRR","1",80,"1","1",423,"Correct",1
"zPiRR","1",81,"1","1",448,"Correct",1
"zPiRR","1",82,"1","1",383,"Correct",1
"zPiRR","1",83,"1","1",387,"Correct",1
"zPiRR","1",84,"1","1",473,"Correct",1
"zPiRR","1",85,"1","1",409,"Correct",1
"zPiRR","1",86,"1","1",351,"Correct",1
"zPiRR","1",87,"1","1",396,"Correct",1
"zPiRR","1",88,"1","1",457,"Correct",1
"zPiRR","1",89,"2","1",468,"Correct",0
"zPiRR","1",90,"1","1",608,"Correct",1
"zPiRR","1",91,"1","1",505,"Correct",1
"zPiRR","1",92,"2","2",312,"Correct",0
"zPiRR","1",93,"1","2",489,"Correct",0
"zPiRR","1",94,"1","1",542,"Correct",1
"zPiRR","1",95,"1","1",436,"Correct",1
"zPiRR","1",96,"1","1",529,"Correct",1
"zPiRR","1",97,"1","2",555,"Correct",0
"zPiRR","1",98,"1","1",410,"Correct",1
"zPiRR","1",99,"2","2",328,"Correct",0
"zPiRR","1",100,"1","1",431,"Correct",1
"zPiRR","1",101,"1","1",413,"Correct",1
"zPiRR","1",102,"2","2",226,"Correct",0
"zPiRR","1",103,"1","1",363,"Correct",1
"zPiRR","1",104,"1","1",424,"Correct",1
"zPiRR","1",105,"1","1",393,"Correct",1
"zPiRR","1",106,"2","1",311,"Correct",0
"zPiRR","1",107,"1","1",389,"Correct",1
"zPiRR","1",108,"1","1",381,"Correct",1
"zPiRR","1",109,"1","1",430,"Correct",1
"zPiRR","1",110,"2","2",452,"Correct",0
"zPiRR","1",111,"2","2",414,"Correct",0
"zPiRR","1",112,"1","1",408,"Correct",1
"zPiRR","1",113,"2","2",354,"Correct",0
"zPiRR","1",114,"1","1",338,"Correct",1
"zPiRR","1",115,"1","1",389,"Correct",1
"zPiRR","1",116,"1","2",645,"Correct",0
"zPiRR","1",117,"1","1",566,"Correct",1
"zPiRR","1",118,"1","1",429,"Correct",1
"zPiRR","1",119,"1","1",375,"Correct",1
"zPiRR","1",120,"1","1",397,"Correct",1
"zPiRR","1",121,"1","1",369,"Correct",1
"zPiRR","1",122,"1","1",471,"Correct",1
"zPiRR","1",123,"1","1",348,"Correct",1
"zPiRR","1",124,"2","1",341,"Correct",0
"zPiRR","1",125,"2","1",269,"Correct",0
"zPiRR","1",126,"1","1",522,"Correct",1
"zPiRR","1",127,"1","1",466,"Correct",1
"zPiRR","1",128,"1","1",375,"Correct",1
"zPiRR","1",129,"1","1",390,"Correct",1
"zPiRR","2",1,"1","2",604,"Correct",0
"zPiRR","2",2,"1","1",436,"Correct",1
"zPiRR","2",3,"1","1",394,"Correct",1
"zPiRR","2",4,"2","1",260,"Correct",0
"zPiRR","2",5,"1","1",400,"Correct",1
"zPiRR","2",6,"1","1",442,"Correct",1
"zPiRR","2",7,"1","1",385,"Correct",1
"zPiRR","2",8,"1","2",504,"Correct",0
"zPiRR","2",9,"1","2",530,"Correct",0
"zPiRR","2",10,"1","1",439,"Correct",1
"zPiRR","2",11,"1","1",342,"Correct",1
"zPiRR","2",12,"1","1",379,"Correct",1
"zPiRR","2",13,"2","1",268,"Correct",0
"zPiRR","2",14,"2","2",232,"Correct",0
"zPiRR","2",15,"2","2",197,"Correct",0
"zPiRR","2",16,"1","2",457,"Correct",0
"zPiRR","2",17,"2","1",200,"Correct",0
"zPiRR","2",18,"1","1",301,"Correct",1
"zPiRR","2",19,"2","2",0,"Incorrect",1
"zPiRR","2",20,"1","1",365,"Correct",1
"zPiRR","2",21,"1","1",284,"Correct",1
"zPiRR","2",22,"1","1",342,"Correct",1
"zPiRR","2",23,"2","1",250,"Correct",0
"zPiRR","2",24,"1","1",332,"Correct",1
"zPiRR","2",25,"1","1",379,"Correct",1
"zPiRR","2",26,"1","1",388,"Correct",1
"zPiRR","2",27,"1","1",388,"Correct",1
"zPiRR","2",28,"1","1",373,"Correct",1
"zPiRR","2",29,"2","2",268,"Correct",0
"zPiRR","2",30,"1","1",368,"Correct",1
"zPiRR","2",31,"1","1",429,"Correct",1
"zPiRR","2",32,"1","1",444,"Correct",1
"zPiRR","2",33,"1","1",369,"Correct",1
"zPiRR","2",34,"2","2",335,"Correct",0
"zPiRR","2",35,"1","1",419,"Correct",1
"zPiRR","2",36,"1","1",427,"Correct",1
"zPiRR","2",37,"1","1",414,"Correct",1
"zPiRR","2",38,"1","1",373,"Correct",1
"zPiRR","2",39,"1","1",416,"Correct",1
"zPiRR","2",40,"1","1",409,"Correct",1
"zPiRR","2",41,"1","1",394,"Correct",1
"zPiRR","2",42,"1","1",337,"Correct",1
"zPiRR","2",43,"1","1",377,"Correct",1
"zPiRR","2",44,"1","1",446,"Correct",1
"zPiRR","2",45,"1","1",364,"Correct",1
"zPiRR","2",46,"1","1",363,"Correct",1
"zPiRR","2",47,"1","1",331,"Correct",1
"zPiRR","2",48,"2","2",560,"Correct",0
"zPiRR","2",49,"1","1",707,"Correct",1
"zPiRR","2",50,"1","1",592,"Correct",1
"zPiRR","2",51,"1","1",426,"Correct",1
"zPiRR","2",52,"1","1",605,"Correct",1
"zPiRR","2",53,"1","1",524,"Correct",1
"zPiRR","2",54,"1","1",739,"Correct",1
"zPiRR","2",55,"2","2",536,"Correct",0
"zPiRR","2",56,"1","1",472,"Correct",1
"zPiRR","2",57,"2","1",722,"Correct",0
"zPiRR","2",58,"1","2",394,"Too Slow",NA
"zPiRR","2",59,"1","1",349,"Correct",1
"zPiRR","2",60,"1","1",347,"Correct",1
"zPiRR","2",61,"1","2",467,"Correct",0
"zPiRR","2",62,"2","1",226,"Correct",0
"zPiRR","2",63,"1","1",408,"Correct",1
"zPiRR","2",64,"1","1",347,"Correct",1
"zPiRR","2",65,"1","2",596,"Correct",0
"zPiRR","2",66,"1","1",370,"Correct",1
"zPiRR","2",67,"1","2",473,"Correct",0
"zPiRR","2",68,"2","1",238,"Correct",0
"zPiRR","2",69,"2","1",196,"Correct",0
"zPiRR","2",70,"1","1",394,"Correct",1
"zPiRR","2",71,"1","1",373,"Correct",1
"zPiRR","2",72,"1","1",360,"Correct",1
"zPiRR","2",73,"2","1",495,"Correct",0
"zPiRR","2",74,"1","2",606,"Correct",0
"zPiRR","2",75,"1","1",422,"Correct",1
"zPiRR","2",76,"1","1",537,"Correct",1
"zPiRR","2",77,"1","1",419,"Correct",1
"zPiRR","2",78,"1","1",403,"Correct",1
"zPiRR","2",79,"1","1",647,"Correct",1
"zPiRR","2",80,"2","2",286,"Correct",0
"zPiRR","2",81,"1","1",381,"Correct",1
"zPiRR","2",82,"1","2",535,"Correct",0
"zPiRR","2",83,"1","1",414,"Correct",1
"zPiRR","2",84,"1","1",366,"Correct",1
"zPiRR","2",85,"2","2",382,"Correct",0
"zPiRR","2",86,"1","1",320,"Correct",1
"zPiRR","2",87,"1","1",291,"Correct",1
"zPiRR","2",88,"1","1",300,"Correct",1
"zPiRR","2",89,"1","1",305,"Correct",1
"zPiRR","2",90,"2","1",302,"Correct",0
"zPiRR","2",91,"1","1",290,"Correct",1
"zPiRR","2",92,"1","1",350,"Correct",1
"zPiRR","2",93,"1","1",370,"Correct",1
"zPiRR","2",94,"2","1",351,"Correct",0
"zPiRR","2",95,"2","1",371,"Correct",0
"zPiRR","2",96,"1","1",330,"Correct",1
"zPiRR","2",97,"2","2",529,"Correct",0
"zPiRR","2",98,"1","1",384,"Correct",1
"zPiRR","2",99,"1","1",297,"Correct",1
"zPiRR","2",100,"1","1",337,"Correct",1
"zPiRR","2",101,"1","1",319,"Correct",1
"zPiRR","2",102,"1","2",258,"Incorrect",1
"zPiRR","2",103,"1","1",405,"Correct",1
"zPiRR","2",104,"1","1",413,"Correct",1
"zPiRR","2",105,"1","1",325,"Correct",1
"zPiRR","2",106,"1","1",319,"Correct",1
"zPiRR","2",107,"1","1",496,"Correct",1
"zPiRR","2",108,"1","1",325,"Correct",1
"zPiRR","2",109,"1","1",417,"Correct",1
"zPiRR","2",110,"1","1",312,"Correct",1
"zPiRR","2",111,"1","1",348,"Correct",1
"zPiRR","2",112,"1","1",502,"Correct",1
"zPiRR","2",113,"1","1",354,"Correct",1
"zPiRR","2",114,"2","1",278,"Correct",0
"zPiRR","2",115,"1","1",379,"Correct",1
"zPiRR","2",116,"1","2",562,"Correct",0
"zPiRR","2",117,"1","1",282,"Correct",1
"zPiRR","2",118,"2","2",246,"Correct",0
"zPiRR","2",119,"1","1",294,"Correct",1
"zPiRR","2",120,"2","2",213,"Correct",0
"zPiRR","2",121,"1","1",339,"Correct",1
"zPiRR","2",122,"1","1",312,"Correct",1
"zPiRR","2",123,"1","1",327,"Correct",1
"zPiRR","2",124,"1","1",336,"Correct",1
"zPiRR","2",125,"1","1",332,"Correct",1
"zPiRR","2",126,"1","1",286,"Correct",1
"zPiRR","2",127,"1","2",553,"Correct",0
"zPiRR","2",128,"1","1",420,"Correct",1
"zPiRR","2",129,"2","2",274,"Correct",0
"yFDrz","1",1,"1","1",738,"Correct",1
"yFDrz","1",2,"1","1",412,"Correct",1
"yFDrz","1",3,"1","1",642,"Correct",1
"yFDrz","1",4,"1","1",564,"Correct",1
"yFDrz","1",5,"2","1",623,"Correct",0
"yFDrz","1",6,"1","1",491,"Correct",1
"yFDrz","1",7,"1","1",377,"Correct",1
"yFDrz","1",8,"1","2",547,"Correct",0
"yFDrz","1",9,"1","1",720,"Correct",1
"yFDrz","1",10,"1","1",410,"Correct",1
"yFDrz","1",11,"1","1",380,"Correct",1
"yFDrz","1",12,"2","1",223,"Correct",0
"yFDrz","1",13,"1","1",484,"Correct",1
"yFDrz","1",14,"1","2",342,"Correct",0
"yFDrz","1",15,"2","2",309,"Correct",0
"yFDrz","1",16,"1","1",539,"Correct",1
"yFDrz","1",17,"1","1",370,"Correct",1
"yFDrz","1",18,"1","1",375,"Correct",1
"yFDrz","1",19,"1","1",473,"Correct",1
"yFDrz","1",20,"1","1",341,"Correct",1
"yFDrz","1",21,"1","1",330,"Correct",1
"yFDrz","1",22,"1","2",501,"Correct",0
"yFDrz","1",23,"1","1",408,"Correct",1
"yFDrz","1",24,"1","2",498,"Incorrect",1
"yFDrz","1",25,"1","1",0,"Too Slow",1
"yFDrz","1",26,"2","1",0,"Too Slow",NA
"yFDrz","1",27,"1","1",308,"Correct",1
"yFDrz","1",28,"1","1",286,"Correct",1
"yFDrz","1",29,"2","1",227,"Correct",0
"yFDrz","1",30,"1","1",256,"Correct",1
"yFDrz","1",31,"1","1",303,"Correct",1
"yFDrz","1",32,"1","2",533,"Correct",0
"yFDrz","1",33,"2","1",362,"Correct",0
"yFDrz","1",34,"1","1",278,"Correct",1
"yFDrz","1",35,"2","2",267,"Correct",0
"yFDrz","1",36,"1","1",434,"Correct",1
"yFDrz","1",37,"1","1",340,"Correct",1
"yFDrz","1",38,"1","1",403,"Correct",1
"yFDrz","1",39,"1","2",436,"Correct",0
"yFDrz","1",40,"1","1",365,"Correct",1
"yFDrz","1",41,"1","1",345,"Correct",1
"yFDrz","1",42,"1","1",398,"Correct",1
"yFDrz","1",43,"2","2",352,"Correct",0
"yFDrz","1",44,"1","1",272,"Correct",1
"yFDrz","1",45,"1","2",475,"Correct",0
"yFDrz","1",46,"2","1",300,"Correct",0
"yFDrz","1",47,"1","1",279,"Correct",1
"yFDrz","1",48,"1","1",404,"Correct",1
"yFDrz","1",49,"1","2",388,"Correct",0
"yFDrz","1",50,"1","1",348,"Correct",1
"yFDrz","1",51,"1","1",305,"Correct",1
"yFDrz","1",52,"1","1",373,"Correct",1
"yFDrz","1",53,"2","2",270,"Correct",0
"yFDrz","1",54,"2","2",291,"Correct",0
"yFDrz","1",55,"1","1",483,"Correct",1
"yFDrz","1",56,"1","1",351,"Correct",1
"yFDrz","1",57,"1","1",336,"Correct",1
"yFDrz","1",58,"1","1",302,"Correct",1
"yFDrz","1",59,"1","1",279,"Correct",1
"yFDrz","1",60,"1","1",296,"Correct",1
"yFDrz","1",61,"1","1",331,"Correct",1
"yFDrz","1",62,"1","1",341,"Correct",1
"yFDrz","1",63,"1","1",287,"Correct",1
"yFDrz","1",64,"2","1",256,"Correct",0
"yFDrz","1",65,"2","2",282,"Correct",0
"yFDrz","1",66,"1","1",347,"Correct",1
"yFDrz","1",67,"1","2",404,"Correct",0
"yFDrz","1",68,"2","1",222,"Correct",0
"yFDrz","1",69,"1","1",360,"Correct",1
"yFDrz","1",70,"2","2",337,"Correct",0
"yFDrz","1",71,"1","1",427,"Correct",1
"yFDrz","1",72,"1","2",425,"Correct",0
"yFDrz","1",73,"1","1",315,"Correct",1
"yFDrz","1",74,"1","1",328,"Correct",1
"yFDrz","1",75,"1","1",314,"Correct",1
"yFDrz","1",76,"1","1",360,"Correct",1
"yFDrz","1",77,"1","1",411,"Correct",1
"yFDrz","1",78,"2","1",270,"Correct",0
"yFDrz","1",79,"1","1",343,"Correct",1
"yFDrz","1",80,"1","1",292,"Correct",1
"yFDrz","1",81,"1","1",303,"Correct",1
"yFDrz","1",82,"1","1",292,"Correct",1
"yFDrz","1",83,"1","1",540,"Correct",1
"yFDrz","1",84,"1","1",394,"Correct",1
"yFDrz","1",85,"1","1",288,"Correct",1
"yFDrz","1",86,"1","1",267,"Correct",1
"yFDrz","1",87,"1","1",270,"Correct",1
"yFDrz","1",88,"1","1",363,"Correct",1
"yFDrz","1",89,"2","1",315,"Correct",0
"yFDrz","1",90,"1","1",334,"Correct",1
"yFDrz","1",91,"1","1",258,"Correct",1
"yFDrz","1",92,"2","2",253,"Correct",0
"yFDrz","1",93,"1","2",468,"Correct",0
"yFDrz","1",94,"1","1",383,"Correct",1
"yFDrz","1",95,"1","1",289,"Correct",1
"yFDrz","1",96,"1","1",278,"Correct",1
"yFDrz","1",97,"1","2",496,"Correct",0
"yFDrz","1",98,"1","1",0,"Too Slow",1
"yFDrz","1",99,"2","2",280,"Correct",0
"yFDrz","1",100,"1","1",265,"Correct",1
"yFDrz","1",101,"1","1",256,"Correct",1
"yFDrz","1",102,"2","2",291,"Correct",0
"yFDrz","1",103,"1","1",272,"Correct",1
"yFDrz","1",104,"1","1",308,"Correct",1
"yFDrz","1",105,"1","1",304,"Correct",1
"yFDrz","1",106,"2","1",245,"Correct",0
"yFDrz","1",107,"1","1",297,"Correct",1
"yFDrz","1",108,"1","1",0,"Too Slow",1
"yFDrz","1",109,"1","1",254,"Correct",1
"yFDrz","1",110,"2","2",257,"Correct",0
"yFDrz","1",111,"2","2",223,"Correct",0
"yFDrz","1",112,"1","1",317,"Correct",1
"yFDrz","1",113,"2","2",326,"Correct",0
"yFDrz","1",114,"1","1",293,"Correct",1
"yFDrz","1",115,"1","1",332,"Correct",1
"yFDrz","1",116,"1","2",260,"Incorrect",1
"yFDrz","1",117,"1","1",567,"Correct",1
"yFDrz","1",118,"1","1",343,"Correct",1
"yFDrz","1",119,"1","1",279,"Correct",1
"yFDrz","1",120,"1","1",369,"Correct",1
"yFDrz","1",121,"1","1",334,"Correct",1
"yFDrz","1",122,"1","1",288,"Correct",1
"yFDrz","1",123,"1","1",272,"Correct",1
"yFDrz","1",124,"2","1",666,"Correct",0
"yFDrz","1",125,"2","1",239,"Correct",0
"yFDrz","1",126,"1","1",300,"Correct",1
"yFDrz","1",127,"1","1",307,"Correct",1
"yFDrz","1",128,"1","1",373,"Correct",1
"yFDrz","1",129,"1","1",270,"Correct",1
"yFDrz","2",1,"1","2",484,"Correct",0
"yFDrz","2",2,"1","1",453,"Correct",1
"yFDrz","2",3,"1","1",318,"Correct",1
"yFDrz","2",4,"2","1",223,"Correct",0
"yFDrz","2",5,"1","1",331,"Correct",1
"yFDrz","2",6,"1","1",333,"Correct",1
"yFDrz","2",7,"1","1",297,"Correct",1
"yFDrz","2",8,"1","2",469,"Correct",0
"yFDrz","2",9,"1","2",467,"Correct",0
"yFDrz","2",10,"1","1",430,"Correct",1
"yFDrz","2",11,"1","1",578,"Correct",1
"yFDrz","2",12,"1","1",430,"Correct",1
"yFDrz","2",13,"2","1",311,"Correct",0
"yFDrz","2",14,"2","2",514,"Correct",0
"yFDrz","2",15,"2","2",244,"Correct",0
"yFDrz","2",16,"1","2",524,"Correct",0
"yFDrz","2",17,"2","1",253,"Correct",0
"yFDrz","2",18,"1","1",257,"Correct",1
"yFDrz","2",19,"2","2",228,"Correct",0
"yFDrz","2",20,"1","1",286,"Correct",1
"yFDrz","2",21,"1","1",290,"Correct",1
"yFDrz","2",22,"1","1",358,"Correct",1
"yFDrz","2",23,"2","1",259,"Correct",0
"yFDrz","2",24,"1","1",282,"Correct",1
"yFDrz","2",25,"1","1",331,"Correct",1
"yFDrz","2",26,"1","1",315,"Correct",1
"yFDrz","2",27,"1","1",251,"Correct",1
"yFDrz","2",28,"1","1",264,"Correct",1
"yFDrz","2",29,"2","2",286,"Correct",0
"yFDrz","2",30,"1","1",277,"Correct",1
"yFDrz","2",31,"1","1",278,"Correct",1
"yFDrz","2",32,"1","1",284,"Correct",1
"yFDrz","2",33,"1","1",304,"Correct",1
"yFDrz","2",34,"2","2",211,"Correct",0
"yFDrz","2",35,"1","1",265,"Correct",1
"yFDrz","2",36,"1","1",247,"Correct",1
"yFDrz","2",37,"1","1",309,"Correct",1
"yFDrz","2",38,"1","1",277,"Correct",1
"yFDrz","2",39,"1","1",448,"Correct",1
"yFDrz","2",40,"1","1",257,"Correct",1
"yFDrz","2",41,"1","1",256,"Correct",1
"yFDrz","2",42,"1","1",337,"Correct",1
"yFDrz","2",43,"1","1",369,"Correct",1
"yFDrz","2",44,"1","1",436,"Correct",1
"yFDrz","2",45,"1","1",232,"Correct",1
"yFDrz","2",46,"1","1",250,"Correct",1
"yFDrz","2",47,"1","1",277,"Correct",1
"yFDrz","2",48,"2","2",325,"Correct",0
"yFDrz","2",49,"1","1",428,"Correct",1
"yFDrz","2",50,"1","1",224,"Correct",1
"yFDrz","2",51,"1","1",230,"Correct",1
"yFDrz","2",52,"1","1",292,"Correct",1
"yFDrz","2",53,"1","1",228,"Correct",1
"yFDrz","2",54,"1","1",255,"Correct",1
"yFDrz","2",55,"2","2",235,"Correct",0
"yFDrz","2",56,"1","1",297,"Correct",1
"yFDrz","2",57,"2","1",241,"Correct",0
"yFDrz","2",58,"1","2",269,"Incorrect",1
"yFDrz","2",59,"1","1",286,"Correct",1
"yFDrz","2",60,"1","1",304,"Correct",1
"yFDrz","2",61,"1","2",408,"Correct",0
"yFDrz","2",62,"2","1",230,"Correct",0
"yFDrz","2",63,"1","1",444,"Correct",1
"yFDrz","2",64,"1","1",288,"Correct",1
"yFDrz","2",65,"1","2",426,"Correct",0
"yFDrz","2",66,"1","1",422,"Correct",1
"yFDrz","2",67,"1","2",513,"Correct",0
"yFDrz","2",68,"2","1",407,"Correct",0
"yFDrz","2",69,"2","1",319,"Correct",0
"yFDrz","2",70,"1","1",407,"Correct",1
"yFDrz","2",71,"1","1",296,"Correct",1
"yFDrz","2",72,"1","1",306,"Correct",1
"yFDrz","2",73,"2","1",287,"Correct",0
"yFDrz","2",74,"1","2",721,"Correct",0
"yFDrz","2",75,"1","1",595,"Correct",1
"yFDrz","2",76,"1","1",374,"Correct",1
"yFDrz","2",77,"1","1",334,"Correct",1
"yFDrz","2",78,"1","1",308,"Correct",1
"yFDrz","2",79,"1","1",289,"Correct",1
"yFDrz","2",80,"2","2",513,"Correct",0
"yFDrz","2",81,"1","1",400,"Correct",1
"yFDrz","2",82,"1","2",433,"Correct",0
"yFDrz","2",83,"1","1",380,"Correct",1
"yFDrz","2",84,"1","1",363,"Correct",1
"yFDrz","2",85,"2","2",220,"Correct",0
"yFDrz","2",86,"1","1",275,"Correct",1
"yFDrz","2",87,"1","1",273,"Correct",1
"yFDrz","2",88,"1","1",243,"Correct",1
"yFDrz","2",89,"1","1",231,"Correct",1
"yFDrz","2",90,"2","1",459,"Correct",0
"yFDrz","2",91,"1","1",310,"Correct",1
"yFDrz","2",92,"1","1",333,"Correct",1
"yFDrz","2",93,"1","1",526,"Correct",1
"yFDrz","2",94,"2","1",227,"Correct",0
"yFDrz","2",95,"2","1",182,"Correct",0
"yFDrz","2",96,"1","1",272,"Correct",1
"yFDrz","2",97,"2","2",207,"Correct",0
"yFDrz","2",98,"1","1",227,"Correct",1
"yFDrz","2",99,"1","1",338,"Correct",1
"yFDrz","2",100,"1","1",303,"Correct",1
"yFDrz","2",101,"1","1",235,"Correct",1
"yFDrz","2",102,"1","2",284,"Incorrect",1
"yFDrz","2",103,"1","1",301,"Correct",1
"yFDrz","2",104,"1","1",299,"Correct",1
"yFDrz","2",105,"1","1",407,"Correct",1
"yFDrz","2",106,"1","1",312,"Correct",1
"yFDrz","2",107,"1","1",273,"Correct",1
"yFDrz","2",108,"1","1",325,"Correct",1
"yFDrz","2",109,"1","1",350,"Correct",1
"yFDrz","2",110,"1","1",334,"Correct",1
"yFDrz","2",111,"1","1",549,"Correct",1
"yFDrz","2",112,"1","1",314,"Correct",1
"yFDrz","2",113,"1","1",294,"Correct",1
"yFDrz","2",114,"2","1",265,"Correct",0
"yFDrz","2",115,"1","1",295,"Correct",1
"yFDrz","2",116,"1","2",506,"Correct",0
"yFDrz","2",117,"1","1",379,"Correct",1
"yFDrz","2",118,"2","2",238,"Correct",0
"yFDrz","2",119,"1","1",398,"Correct",1
"yFDrz","2",120,"2","2",259,"Correct",0
"yFDrz","2",121,"1","1",404,"Correct",1
"yFDrz","2",122,"1","1",287,"Correct",1
"yFDrz","2",123,"1","1",345,"Correct",1
"yFDrz","2",124,"1","1",297,"Correct",1
"yFDrz","2",125,"1","1",282,"Correct",1
"yFDrz","2",126,"1","1",272,"Correct",1
"yFDrz","2",127,"1","2",409,"Correct",0
"yFDrz","2",128,"1","1",373,"Too Slow",1
"yFDrz","2",129,"2","2",223,"Correct",0
"4gvSk","1",1,"1","1",508,"Correct",1
"4gvSk","1",2,"1","1",553,"Correct",1
"4gvSk","1",3,"1","1",405,"Correct",1
"4gvSk","1",4,"1","1",403,"Correct",1
"4gvSk","1",5,"2","1",204,"Correct",0
"4gvSk","1",6,"1","1",410,"Correct",1
"4gvSk","1",7,"1","1",450,"Correct",1
"4gvSk","1",8,"1","2",540,"Correct",0
"4gvSk","1",9,"1","1",407,"Correct",1
"4gvSk","1",10,"1","1",428,"Correct",1
"4gvSk","1",11,"1","1",377,"Correct",1
"4gvSk","1",12,"2","1",559,"Correct",0
"4gvSk","1",13,"1","1",431,"Correct",1
"4gvSk","1",14,"1","2",537,"Correct",0
"4gvSk","1",15,"2","2",227,"Correct",0
"4gvSk","1",16,"1","1",378,"Correct",1
"4gvSk","1",17,"1","1",389,"Correct",1
"4gvSk","1",18,"1","1",408,"Correct",1
"4gvSk","1",19,"1","1",364,"Correct",1
"4gvSk","1",20,"1","1",525,"Correct",1
"4gvSk","1",21,"1","1",421,"Correct",1
"4gvSk","1",22,"1","2",558,"Correct",0
"4gvSk","1",23,"1","1",453,"Correct",1
"4gvSk","1",24,"1","2",643,"Correct",0
"4gvSk","1",25,"1","1",455,"Correct",1
"4gvSk","1",26,"2","1",539,"Correct",0
"4gvSk","1",27,"1","1",345,"Correct",1
"4gvSk","1",28,"1","1",379,"Correct",1
"4gvSk","1",29,"2","1",308,"Correct",0
"4gvSk","1",30,"1","1",323,"Correct",1
"4gvSk","1",31,"1","1",340,"Correct",1
"4gvSk","1",32,"1","2",561,"Correct",0
"4gvSk","1",33,"2","1",537,"Incorrect",1
"4gvSk","1",34,"1","1",434,"Correct",1
"4gvSk","1",35,"2","2",291,"Correct",0
"4gvSk","1",36,"1","1",453,"Correct",1
"4gvSk","1",37,"1","1",385,"Correct",1
"4gvSk","1",38,"1","1",435,"Correct",1
"4gvSk","1",39,"1","2",551,"Incorrect",1
"4gvSk","1",40,"1","1",531,"Correct",1
"4gvSk","1",41,"1","1",514,"Correct",1
"4gvSk","1",42,"1","1",357,"Correct",1
"4gvSk","1",43,"2","2",291,"Correct",0
"4gvSk","1",44,"1","1",310,"Correct",1
"4gvSk","1",45,"1","2",572,"Correct",0
"4gvSk","1",46,"2","1",0,"Too Slow",NA
"4gvSk","1",47,"1","1",469,"Correct",1
"4gvSk","1",48,"1","1",672,"Correct",1
"4gvSk","1",49,"1","2",497,"Correct",0
"4gvSk","1",50,"1","1",452,"Correct",1
"4gvSk","1",51,"1","1",349,"Correct",1
"4gvSk","1",52,"1","1",512,"Correct",1
"4gvSk","1",53,"2","2",368,"Correct",0
"4gvSk","1",54,"2","2",281,"Correct",0
"4gvSk","1",55,"1","1",418,"Correct",1
"4gvSk","1",56,"1","1",653,"Correct",1
"4gvSk","1",57,"1","1",599,"Correct",1
"4gvSk","1",58,"1","1",568,"Correct",1
"4gvSk","1",59,"1","1",642,"Correct",1
"4gvSk","1",60,"1","1",610,"Correct",1
"4gvSk","1",61,"1","1",524,"Correct",1
"4gvSk","1",62,"1","1",514,"Correct",1
"4gvSk","1",63,"1","1",465,"Correct",1
"4gvSk","1",64,"2","1",535,"Correct",0
"4gvSk","1",65,"2","2",728,"Correct",0
"4gvSk","1",66,"1","1",560,"Correct",1
"4gvSk","1",67,"1","2",715,"Correct",0
"4gvSk","1",68,"2","1",584,"Incorrect",1
"4gvSk","1",69,"1","1",601,"Correct",1
"4gvSk","1",70,"2","2",677,"Correct",0
"4gvSk","1",71,"1","1",477,"Correct",1
"4gvSk","1",72,"1","2",0,"Too Slow",NA
"4gvSk","1",73,"1","1",323,"Correct",1
"4gvSk","1",74,"1","1",595,"Correct",1
"4gvSk","1",75,"1","1",401,"Correct",1
"4gvSk","1",76,"1","1",525,"Correct",1
"4gvSk","1",77,"1","1",420,"Correct",1
"4gvSk","1",78,"2","1",286,"Correct",0
"4gvSk","1",79,"1","1",576,"Correct",1
"4gvSk","1",80,"1","1",601,"Correct",1
"4gvSk","1",81,"1","1",538,"Correct",1
"4gvSk","1",82,"1","1",630,"Correct",1
"4gvSk","1",83,"1","1",264,"Correct",1
"4gvSk","1",84,"1","1",0,"Too Slow",1
"4gvSk","1",85,"1","1",442,"Correct",1
"4gvSk","1",86,"1","1",504,"Correct",1
"4gvSk","1",87,"1","1",422,"Correct",1
"4gvSk","1",88,"1","1",528,"Correct",1
"4gvSk","1",89,"2","1",471,"Incorrect",1
"4gvSk","1",90,"1","1",256,"Correct",1
"4gvSk","1",91,"1","1",426,"Correct",1
"4gvSk","1",92,"2","2",411,"Correct",0
"4gvSk","1",93,"1","2",637,"Correct",0
"4gvSk","1",94,"1","1",469,"Correct",1
"4gvSk","1",95,"1","1",414,"Correct",1
"4gvSk","1",96,"1","1",476,"Correct",1
"4gvSk","1",97,"1","2",637,"Correct",0
"4gvSk","1",98,"1","1",474,"Correct",1
"4gvSk","1",99,"2","2",272,"Correct",0
"4gvSk","1",100,"1","1",389,"Correct",1
"4gvSk","1",101,"1","1",485,"Correct",1
"4gvSk","1",102,"2","2",624,"Correct",0
"4gvSk","1",103,"1","1",719,"Incorrect",0
"4gvSk","1",104,"1","1",653,"Correct",1
"4gvSk","1",105,"1","1",559,"Correct",1
"4gvSk","1",106,"2","1",469,"Correct",0
"4gvSk","1",107,"1","1",497,"Correct",1
"4gvSk","1",108,"1","1",660,"Correct",1
"4gvSk","1",109,"1","1",496,"Correct",1
"4gvSk","1",110,"2","2",703,"Correct",0
"4gvSk","1",111,"2","2",439,"Correct",0
"4gvSk","1",112,"1","1",629,"Correct",1
"4gvSk","1",113,"2","2",0,"Too Slow",NA
"4gvSk","1",114,"1","1",588,"Correct",1
"4gvSk","1",115,"1","1",613,"Correct",1
"4gvSk","1",116,"1","2",0,"Too Slow",NA
"4gvSk","1",117,"1","1",0,"Too Slow",1
"4gvSk","1",118,"1","1",359,"Correct",1
"4gvSk","1",119,"1","1",279,"Correct",1
"4gvSk","1",120,"1","1",533,"Correct",1
"4gvSk","1",121,"1","1",314,"Correct",1
"4gvSk","1",122,"1","1",211,"Correct",1
"4gvSk","1",123,"1","1",235,"Correct",1
"4gvSk","1",124,"2","1",0,"Too Slow",NA
"4gvSk","1",125,"2","1",533,"Correct",0
"4gvSk","1",126,"1","1",587,"Correct",1
"4gvSk","1",127,"1","1",392,"Correct",1
"4gvSk","1",128,"1","1",633,"Correct",1
"4gvSk","1",129,"1","1",205,"Correct",1
"4gvSk","2",1,"1","2",635,"Correct",0
"4gvSk","2",2,"1","1",392,"Correct",1
"4gvSk","2",3,"1","1",400,"Correct",1
"4gvSk","2",4,"2","1",318,"Correct",0
"4gvSk","2",5,"1","1",510,"Correct",1
"4gvSk","2",6,"1","1",272,"Correct",1
"4gvSk","2",7,"1","1",363,"Correct",1
"4gvSk","2",8,"1","2",659,"Correct",0
"4gvSk","2",9,"1","2",407,"Too Slow",NA
"4gvSk","2",10,"1","1",512,"Correct",1
"4gvSk","2",11,"1","1",331,"Correct",1
"4gvSk","2",12,"1","1",272,"Correct",1
"4gvSk","2",13,"2","1",204,"Correct",0
"4gvSk","2",14,"2","2",217,"Correct",0
"4gvSk","2",15,"2","2",410,"Incorrect",1
"4gvSk","2",16,"1","2",388,"Correct",0
"4gvSk","2",17,"2","1",390,"Correct",0
"4gvSk","2",18,"1","1",456,"Correct",1
"4gvSk","2",19,"2","2",411,"Correct",0
"4gvSk","2",20,"1","1",525,"Too Slow",1
"4gvSk","2",21,"1","1",347,"Correct",1
"4gvSk","2",22,"1","1",517,"Correct",1
"4gvSk","2",23,"2","1",241,"Correct",0
"4gvSk","2",24,"1","1",562,"Incorrect",0
"4gvSk","2",25,"1","1",227,"Correct",1
"4gvSk","2",26,"1","1",416,"Correct",1
"4gvSk","2",27,"1","1",595,"Correct",1
"4gvSk","2",28,"1","1",414,"Correct",1
"4gvSk","2",29,"2","2",392,"Correct",0
"4gvSk","2",30,"1","1",503,"Correct",1
"4gvSk","2",31,"1","1",501,"Correct",1
"4gvSk","2",32,"1","1",373,"Correct",1
"4gvSk","2",33,"1","1",229,"Correct",1
"4gvSk","2",34,"2","2",290,"Incorrect",1
"4gvSk","2",35,"1","1",492,"Correct",1
"4gvSk","2",36,"1","1",279,"Correct",1
"4gvSk","2",37,"1","1",382,"Correct",1
"4gvSk","2",38,"1","1",487,"Correct",1
"4gvSk","2",39,"1","1",295,"Correct",1
"4gvSk","2",40,"1","1",420,"Correct",1
"4gvSk","2",41,"1","1",345,"Correct",1
"4gvSk","2",42,"1","1",410,"Correct",1
"4gvSk","2",43,"1","1",301,"Correct",1
"4gvSk","2",44,"1","1",255,"Correct",1
"4gvSk","2",45,"1","1",481,"Correct",1
"4gvSk","2",46,"1","1",638,"Correct",1
"4gvSk","2",47,"1","1",310,"Correct",1
"4gvSk","2",48,"2","2",281,"Correct",0
"4gvSk","2",49,"1","1",468,"Correct",1
"4gvSk","2",50,"1","1",182,"Correct",1
"4gvSk","2",51,"1","1",485,"Correct",1
"4gvSk","2",52,"1","1",332,"Correct",1
"4gvSk","2",53,"1","1",459,"Correct",1
"4gvSk","2",54,"1","1",299,"Correct",1
"4gvSk","2",55,"2","2",748,"Correct",0
"4gvSk","2",56,"1","1",534,"Correct",1
"4gvSk","2",57,"2","1",258,"Correct",0
"4gvSk","2",58,"1","2",488,"Correct",0
"4gvSk","2",59,"1","1",642,"Too Slow",1
"4gvSk","2",60,"1","1",599,"Correct",1
"4gvSk","2",61,"1","2",536,"Correct",0
"4gvSk","2",62,"2","1",417,"Correct",0
"4gvSk","2",63,"1","1",312,"Correct",1
"4gvSk","2",64,"1","1",705,"Correct",1
"4gvSk","2",65,"1","2",630,"Correct",0
"4gvSk","2",66,"1","1",605,"Correct",1
"4gvSk","2",67,"1","2",640,"Correct",0
"4gvSk","2",68,"2","1",553,"Correct",0
"4gvSk","2",69,"2","1",306,"Correct",0
"4gvSk","2",70,"1","1",425,"Incorrect",0
"4gvSk","2",71,"1","1",375,"Correct",1
"4gvSk","2",72,"1","1",480,"Correct",1
"4gvSk","2",73,"2","1",368,"Correct",0
"4gvSk","2",74,"1","2",580,"Correct",0
"4gvSk","2",75,"1","1",435,"Incorrect",0
"4gvSk","2",76,"1","1",380,"Correct",1
"4gvSk","2",77,"1","1",420,"Too Slow",1
"4gvSk","2",78,"1","1",557,"Correct",1
"4gvSk","2",79,"1","1",617,"Correct",1
"4gvSk","2",80,"2","2",536,"Correct",0
"4gvSk","2",81,"1","1",538,"Too Slow",1
"4gvSk","2",82,"1","2",630,"Too Slow",NA
"4gvSk","2",83,"1","1",437,"Correct",1
"4gvSk","2",84,"1","1",518,"Correct",1
"4gvSk","2",85,"2","2",320,"Correct",0
"4gvSk","2",86,"1","1",514,"Correct",1
"4gvSk","2",87,"1","1",422,"Too Slow",1
"4gvSk","2",88,"1","1",434,"Correct",1
"4gvSk","2",89,"1","1",523,"Correct",1
"4gvSk","2",90,"2","1",627,"Incorrect",1
"4gvSk","2",91,"1","1",517,"Correct",1
"4gvSk","2",92,"1","1",677,"Correct",1
"4gvSk","2",93,"1","1",463,"Correct",1
"4gvSk","2",94,"2","1",435,"Correct",0
"4gvSk","2",95,"2","1",438,"Correct",0
"4gvSk","2",96,"1","1",208,"Correct",1
"4gvSk","2",97,"2","2",0,"Incorrect",1
"4gvSk","2",98,"1","1",284,"Correct",1
"4gvSk","2",99,"1","1",414,"Correct",1
"4gvSk","2",100,"1","1",597,"Correct",1
"4gvSk","2",101,"1","1",570,"Correct",1
"4gvSk","2",102,"1","2",705,"Incorrect",1
"4gvSk","2",103,"1","1",535,"Correct",1
"4gvSk","2",104,"1","1",503,"Correct",1
"4gvSk","2",105,"1","1",360,"Correct",1
"4gvSk","2",106,"1","1",336,"Correct",1
"4gvSk","2",107,"1","1",417,"Correct",1
"4gvSk","2",108,"1","1",450,"Correct",1
"4gvSk","2",109,"1","1",493,"Correct",1
"4gvSk","2",110,"1","1",311,"Correct",1
"4gvSk","2",111,"1","1",338,"Correct",1
"4gvSk","2",112,"1","1",308,"Correct",1
"4gvSk","2",113,"1","1",235,"Correct",1
"4gvSk","2",114,"2","1",254,"Correct",0
"4gvSk","2",115,"1","1",341,"Correct",1
"4gvSk","2",116,"1","2",596,"Correct",0
"4gvSk","2",117,"1","1",316,"Incorrect",0
"4gvSk","2",118,"2","2",607,"Correct",0
"4gvSk","2",119,"1","1",619,"Correct",1
"4gvSk","2",120,"2","2",0,"Incorrect",1
"4gvSk","2",121,"1","1",0,"Incorrect",0
"4gvSk","2",122,"1","1",259,"Correct",1
"4gvSk","2",123,"1","1",253,"Correct",1
"4gvSk","2",124,"1","1",327,"Correct",1
"4gvSk","2",125,"1","1",314,"Correct",1
"4gvSk","2",126,"1","1",234,"Correct",1
"4gvSk","2",127,"1","2",516,"Correct",0
"4gvSk","2",128,"1","1",451,"Correct",1
"4gvSk","2",129,"2","2",144,"Correct",0
"io7tL","1",1,"1","1",460,"Correct",1
"io7tL","1",2,"1","1",356,"Correct",1
"io7tL","1",3,"1","1",369,"Correct",1
"io7tL","1",4,"1","1",474,"Correct",1
"io7tL","1",5,"2","1",239,"Correct",0
"io7tL","1",6,"1","1",399,"Correct",1
"io7tL","1",7,"1","1",335,"Correct",1
"io7tL","1",8,"1","2",514,"Correct",0
"io7tL","1",9,"1","1",341,"Correct",1
"io7tL","1",10,"1","1",379,"Correct",1
"io7tL","1",11,"1","1",428,"Correct",1
"io7tL","1",12,"2","1",450,"Correct",0
"io7tL","1",13,"1","1",313,"Correct",1
"io7tL","1",14,"1","2",364,"Incorrect",1
"io7tL","1",15,"2","2",200,"Correct",0
"io7tL","1",16,"1","1",306,"Correct",1
"io7tL","1",17,"1","1",320,"Correct",1
"io7tL","1",18,"1","1",332,"Correct",1
"io7tL","1",19,"1","1",300,"Correct",1
"io7tL","1",20,"1","1",335,"Correct",1
"io7tL","1",21,"1","1",368,"Correct",1
"io7tL","1",22,"1","2",562,"Correct",0
"io7tL","1",23,"1","1",435,"Correct",1
"io7tL","1",24,"1","2",440,"Correct",0
"io7tL","1",25,"1","1",354,"Correct",1
"io7tL","1",26,"2","1",466,"Correct",0
"io7tL","1",27,"1","1",314,"Correct",1
"io7tL","1",28,"1","1",345,"Correct",1
"io7tL","1",29,"2","1",360,"Correct",0
"io7tL","1",30,"1","1",313,"Correct",1
"io7tL","1",31,"1","1",337,"Correct",1
"io7tL","1",32,"1","2",603,"Correct",0
"io7tL","1",33,"2","1",202,"Correct",0
"io7tL","1",34,"1","1",243,"Correct",1
"io7tL","1",35,"2","2",212,"Correct",0
"io7tL","1",36,"1","1",298,"Correct",1
"io7tL","1",37,"1","1",446,"Correct",1
"io7tL","1",38,"1","1",341,"Correct",1
"io7tL","1",39,"1","2",359,"Correct",0
"io7tL","1",40,"1","1",351,"Incorrect",0
"io7tL","1",41,"1","1",331,"Correct",1
"io7tL","1",42,"1","1",343,"Correct",1
"io7tL","1",43,"2","2",219,"Correct",0
"io7tL","1",44,"1","1",291,"Correct",1
"io7tL","1",45,"1","2",564,"Correct",0
"io7tL","1",46,"2","1",239,"Correct",0
"io7tL","1",47,"1","1",343,"Correct",1
"io7tL","1",48,"1","1",338,"Correct",1
"io7tL","1",49,"1","2",475,"Correct",0
"io7tL","1",50,"1","1",299,"Correct",1
"io7tL","1",51,"1","1",290,"Correct",1
"io7tL","1",52,"1","1",263,"Correct",1
"io7tL","1",53,"2","2",226,"Correct",0
"io7tL","1",54,"2","2",299,"Correct",0
"io7tL","1",55,"1","1",333,"Correct",1
"io7tL","1",56,"1","1",350,"Correct",1
"io7tL","1",57,"1","1",393,"Correct",1
"io7tL","1",58,"1","1",404,"Correct",1
"io7tL","1",59,"1","1",316,"Correct",1
"io7tL","1",60,"1","1",255,"Correct",1
"io7tL","1",61,"1","1",321,"Correct",1
"io7tL","1",62,"1","1",345,"Correct",1
"io7tL","1",63,"1","1",250,"Correct",1
"io7tL","1",64,"2","1",291,"Correct",0
"io7tL","1",65,"2","2",344,"Correct",0
"io7tL","1",66,"1","1",342,"Correct",1
"io7tL","1",67,"1","2",386,"Correct",0
"io7tL","1",68,"2","1",240,"Correct",0
"io7tL","1",69,"1","1",284,"Correct",1
"io7tL","1",70,"2","2",196,"Correct",0
"io7tL","1",71,"1","1",433,"Correct",1
"io7tL","1",72,"1","2",416,"Incorrect",1
"io7tL","1",73,"1","1",297,"Correct",1
"io7tL","1",74,"1","1",320,"Correct",1
"io7tL","1",75,"1","1",434,"Correct",1
"io7tL","1",76,"1","1",386,"Correct",1
"io7tL","1",77,"1","1",246,"Correct",1
"io7tL","1",78,"2","1",269,"Correct",0
"io7tL","1",79,"1","1",225,"Correct",1
"io7tL","1",80,"1","1",153,"Correct",1
"io7tL","1",81,"1","1",340,"Correct",1
"io7tL","1",82,"1","1",310,"Correct",1
"io7tL","1",83,"1","1",231,"Correct",1
"io7tL","1",84,"1","1",372,"Correct",1
"io7tL","1",85,"1","1",318,"Correct",1
"io7tL","1",86,"1","1",301,"Correct",1
"io7tL","1",87,"1","1",284,"Correct",1
"io7tL","1",88,"1","1",337,"Correct",1
"io7tL","1",89,"2","1",515,"Correct",0
"io7tL","1",90,"1","1",277,"Correct",1
"io7tL","1",91,"1","1",295,"Correct",1
"io7tL","1",92,"2","2",190,"Correct",0
"io7tL","1",93,"1","2",188,"Incorrect",1
"io7tL","1",94,"1","1",404,"Correct",1
"io7tL","1",95,"1","1",478,"Correct",1
"io7tL","1",96,"1","1",277,"Correct",1
"io7tL","1",97,"1","2",440,"Correct",0
"io7tL","1",98,"1","1",295,"Correct",1
"io7tL","1",99,"2","2",186,"Correct",0
"io7tL","1",100,"1","1",286,"Correct",1
"io7tL","1",101,"1","1",310,"Correct",1
"io7tL","1",102,"2","2",212,"Correct",0
"io7tL","1",103,"1","1",196,"Correct",1
"io7tL","1",104,"1","1",277,"Correct",1
"io7tL","1",105,"1","1",352,"Correct",1
"io7tL","1",106,"2","1",204,"Correct",0
"io7tL","1",107,"1","1",227,"Correct",1
"io7tL","1",108,"1","1",246,"Correct",1
"io7tL","1",109,"1","1",316,"Correct",1
"io7tL","1",110,"2","2",197,"Correct",0
"io7tL","1",111,"2","2",205,"Correct",0
"io7tL","1",112,"1","1",223,"Correct",1
"io7tL","1",113,"2","2",334,"Correct",0
"io7tL","1",114,"1","1",338,"Correct",1
"io7tL","1",115,"1","1",212,"Correct",1
"io7tL","1",116,"1","2",460,"Correct",0
"io7tL","1",117,"1","1",345,"Correct",1
"io7tL","1",118,"1","1",500,"Correct",1
"io7tL","1",119,"1","1",573,"Correct",1
"io7tL","1",120,"1","1",336,"Correct",1
"io7tL","1",121,"1","1",418,"Correct",1
"io7tL","1",122,"1","1",245,"Correct",1
"io7tL","1",123,"1","1",308,"Correct",1
"io7tL","1",124,"2","1",199,"Correct",0
"io7tL","1",125,"2","1",212,"Correct",0
"io7tL","1",126,"1","1",255,"Correct",1
"io7tL","1",127,"1","1",324,"Correct",1
"io7tL","1",128,"1","1",320,"Correct",1
"io7tL","1",129,"1","1",333,"Correct",1
"io7tL","2",1,"1","2",404,"Incorrect",1
"io7tL","2",2,"1","1",368,"Correct",1
"io7tL","2",3,"1","1",381,"Correct",1
"io7tL","2",4,"2","1",469,"Incorrect",1
"io7tL","2",5,"1","1",375,"Correct",1
"io7tL","2",6,"1","1",274,"Correct",1
"io7tL","2",7,"1","1",336,"Correct",1
"io7tL","2",8,"1","2",459,"Correct",0
"io7tL","2",9,"1","2",551,"Correct",0
"io7tL","2",10,"1","1",291,"Correct",1
"io7tL","2",11,"1","1",359,"Correct",1
"io7tL","2",12,"1","1",416,"Correct",1
"io7tL","2",13,"2","1",198,"Correct",0
"io7tL","2",14,"2","2",463,"Correct",0
"io7tL","2",15,"2","2",186,"Correct",0
"io7tL","2",16,"1","2",200,"Incorrect",1
"io7tL","2",17,"2","1",202,"Correct",0
"io7tL","2",18,"1","1",340,"Correct",1
"io7tL","2",19,"2","2",311,"Correct",0
"io7tL","2",20,"1","1",334,"Correct",1
"io7tL","2",21,"1","1",430,"Correct",1
"io7tL","2",22,"1","1",484,"Correct",1
"io7tL","2",23,"2","1",346,"Correct",0
"io7tL","2",24,"1","1",295,"Correct",1
"io7tL","2",25,"1","1",287,"Correct",1
"io7tL","2",26,"1","1",226,"Correct",1
"io7tL","2",27,"1","1",315,"Correct",1
"io7tL","2",28,"1","1",340,"Correct",1
"io7tL","2",29,"2","2",460,"Correct",0
"io7tL","2",30,"1","1",268,"Correct",1
"io7tL","2",31,"1","1",323,"Correct",1
"io7tL","2",32,"1","1",348,"Correct",1
"io7tL","2",33,"1","1",296,"Correct",1
"io7tL","2",34,"2","2",210,"Correct",0
"io7tL","2",35,"1","1",349,"Correct",1
"io7tL","2",36,"1","1",248,"Correct",1
"io7tL","2",37,"1","1",244,"Correct",1
"io7tL","2",38,"1","1",220,"Correct",1
"io7tL","2",39,"1","1",235,"Correct",1
"io7tL","2",40,"1","1",256,"Correct",1
"io7tL","2",41,"1","1",260,"Correct",1
"io7tL","2",42,"1","1",278,"Correct",1
"io7tL","2",43,"1","1",214,"Correct",1
"io7tL","2",44,"1","1",212,"Correct",1
"io7tL","2",45,"1","1",247,"Correct",1
"io7tL","2",46,"1","1",327,"Correct",1
"io7tL","2",47,"1","1",238,"Correct",1
"io7tL","2",48,"2","2",267,"Correct",0
"io7tL","2",49,"1","1",305,"Correct",1
"io7tL","2",50,"1","1",360,"Correct",1
"io7tL","2",51,"1","1",303,"Correct",1
"io7tL","2",52,"1","1",203,"Correct",1
"io7tL","2",53,"1","1",175,"Correct",1
"io7tL","2",54,"1","1",250,"Correct",1
"io7tL","2",55,"2","2",251,"Correct",0
"io7tL","2",56,"1","1",240,"Correct",1
"io7tL","2",57,"2","1",300,"Correct",0
"io7tL","2",58,"1","2",462,"Correct",0
"io7tL","2",59,"1","1",284,"Correct",1
"io7tL","2",60,"1","1",201,"Correct",1
"io7tL","2",61,"1","2",316,"Incorrect",1
"io7tL","2",62,"2","1",312,"Correct",0
"io7tL","2",63,"1","1",349,"Correct",1
"io7tL","2",64,"1","1",350,"Correct",1
"io7tL","2",65,"1","2",558,"Correct",0
"io7tL","2",66,"1","1",356,"Correct",1
"io7tL","2",67,"1","2",590,"Incorrect",1
"io7tL","2",68,"2","1",408,"Correct",0
"io7tL","2",69,"2","1",216,"Correct",0
"io7tL","2",70,"1","1",331,"Correct",1
"io7tL","2",71,"1","1",337,"Correct",1
"io7tL","2",72,"1","1",374,"Correct",1
"io7tL","2",73,"2","1",228,"Correct",0
"io7tL","2",74,"1","2",388,"Incorrect",1
"io7tL","2",75,"1","1",319,"Correct",1
"io7tL","2",76,"1","1",331,"Correct",1
"io7tL","2",77,"1","1",276,"Correct",1
"io7tL","2",78,"1","1",331,"Correct",1
"io7tL","2",79,"1","1",255,"Correct",1
"io7tL","2",80,"2","2",88,"Correct",0
"io7tL","2",81,"1","1",224,"Correct",1
"io7tL","2",82,"1","2",373,"Incorrect",1
"io7tL","2",83,"1","1",326,"Correct",1
"io7tL","2",84,"1","1",317,"Correct",1
"io7tL","2",85,"2","2",567,"Correct",0
"io7tL","2",86,"1","1",369,"Correct",1
"io7tL","2",87,"1","1",311,"Correct",1
"io7tL","2",88,"1","1",344,"Correct",1
"io7tL","2",89,"1","1",349,"Correct",1
"io7tL","2",90,"2","1",258,"Correct",0
"io7tL","2",91,"1","1",311,"Correct",1
"io7tL","2",92,"1","1",359,"Correct",1
"io7tL","2",93,"1","1",359,"Correct",1
"io7tL","2",94,"2","1",257,"Correct",0
"io7tL","2",95,"2","1",221,"Correct",0
"io7tL","2",96,"1","1",224,"Correct",1
"io7tL","2",97,"2","2",306,"Correct",0
"io7tL","2",98,"1","1",252,"Correct",1
"io7tL","2",99,"1","1",299,"Correct",1
"io7tL","2",100,"1","1",239,"Correct",1
"io7tL","2",101,"1","1",255,"Correct",1
"io7tL","2",102,"1","2",214,"Incorrect",1
"io7tL","2",103,"1","1",467,"Correct",1
"io7tL","2",104,"1","1",312,"Correct",1
"io7tL","2",105,"1","1",343,"Correct",1
"io7tL","2",106,"1","1",354,"Correct",1
"io7tL","2",107,"1","1",384,"Correct",1
"io7tL","2",108,"1","1",409,"Correct",1
"io7tL","2",109,"1","1",374,"Correct",1
"io7tL","2",110,"1","1",271,"Correct",1
"io7tL","2",111,"1","1",352,"Correct",1
"io7tL","2",112,"1","1",343,"Correct",1
"io7tL","2",113,"1","1",370,"Correct",1
"io7tL","2",114,"2","1",206,"Correct",0
"io7tL","2",115,"1","1",261,"Correct",1
"io7tL","2",116,"1","2",722,"Correct",0
"io7tL","2",117,"1","1",344,"Correct",1
"io7tL","2",118,"2","2",300,"Correct",0
"io7tL","2",119,"1","1",360,"Correct",1
"io7tL","2",120,"2","2",201,"Correct",0
"io7tL","2",121,"1","1",362,"Correct",1
"io7tL","2",122,"1","1",365,"Correct",1
"io7tL","2",123,"1","1",339,"Correct",1
"io7tL","2",124,"1","1",292,"Correct",1
"io7tL","2",125,"1","1",278,"Correct",1
"io7tL","2",126,"1","1",286,"Correct",1
"io7tL","2",127,"1","2",448,"Incorrect",1
"io7tL","2",128,"1","1",296,"Correct",1
"io7tL","2",129,"2","2",230,"Correct",0
"ZZ74m","1",1,"1","1",480,"Correct",1
"ZZ74m","1",2,"1","1",381,"Correct",1
"ZZ74m","1",3,"1","1",319,"Correct",1
"ZZ74m","1",4,"1","1",269,"Correct",1
"ZZ74m","1",5,"2","1",277,"Correct",0
"ZZ74m","1",6,"1","1",286,"Correct",1
"ZZ74m","1",7,"1","1",253,"Correct",1
"ZZ74m","1",8,"1","2",430,"Correct",0
"ZZ74m","1",9,"1","1",379,"Correct",1
"ZZ74m","1",10,"1","1",269,"Correct",1
"ZZ74m","1",11,"1","1",238,"Correct",1
"ZZ74m","1",12,"2","1",232,"Correct",0
"ZZ74m","1",13,"1","1",244,"Correct",1
"ZZ74m","1",14,"1","2",466,"Correct",0
"ZZ74m","1",15,"2","2",539,"Correct",0
"ZZ74m","1",16,"1","1",406,"Correct",1
"ZZ74m","1",17,"1","1",252,"Correct",1
"ZZ74m","1",18,"1","1",321,"Correct",1
"ZZ74m","1",19,"1","1",225,"Correct",1
"ZZ74m","1",20,"1","1",339,"Correct",1
"ZZ74m","1",21,"1","1",285,"Correct",1
"ZZ74m","1",22,"1","2",421,"Correct",0
"ZZ74m","1",23,"1","1",319,"Correct",1
"ZZ74m","1",24,"1","2",462,"Correct",0
"ZZ74m","1",25,"1","1",271,"Correct",1
"ZZ74m","1",26,"2","1",166,"Correct",0
"ZZ74m","1",27,"1","1",266,"Correct",1
"ZZ74m","1",28,"1","1",495,"Correct",1
"ZZ74m","1",29,"2","1",535,"Incorrect",1
"ZZ74m","1",30,"1","1",270,"Correct",1
"ZZ74m","1",31,"1","1",258,"Correct",1
"ZZ74m","1",32,"1","2",498,"Correct",0
"ZZ74m","1",33,"2","1",284,"Correct",0
"ZZ74m","1",34,"1","1",410,"Correct",1
"ZZ74m","1",35,"2","2",246,"Correct",0
"ZZ74m","1",36,"1","1",243,"Correct",1
"ZZ74m","1",37,"1","1",316,"Correct",1
"ZZ74m","1",38,"1","1",261,"Correct",1
"ZZ74m","1",39,"1","2",498,"Correct",0
"ZZ74m","1",40,"1","1",316,"Correct",1
"ZZ74m","1",41,"1","1",252,"Correct",1
"ZZ74m","1",42,"1","1",307,"Correct",1
"ZZ74m","1",43,"2","2",240,"Correct",0
"ZZ74m","1",44,"1","1",327,"Correct",1
"ZZ74m","1",45,"1","2",487,"Correct",0
"ZZ74m","1",46,"2","1",460,"Correct",0
"ZZ74m","1",47,"1","1",433,"Correct",1
"ZZ74m","1",48,"1","1",355,"Correct",1
"ZZ74m","1",49,"1","2",394,"Correct",0
"ZZ74m","1",50,"1","1",221,"Correct",1
"ZZ74m","1",51,"1","1",254,"Correct",1
"ZZ74m","1",52,"1","1",305,"Correct",1
"ZZ74m","1",53,"2","2",489,"Correct",0
"ZZ74m","1",54,"2","2",543,"Correct",0
"ZZ74m","1",55,"1","1",253,"Correct",1
"ZZ74m","1",56,"1","1",640,"Correct",1
"ZZ74m","1",57,"1","1",334,"Correct",1
"ZZ74m","1",58,"1","1",329,"Correct",1
"ZZ74m","1",59,"1","1",228,"Correct",1
"ZZ74m","1",60,"1","1",224,"Correct",1
"ZZ74m","1",61,"1","1",259,"Correct",1
"ZZ74m","1",62,"1","1",268,"Correct",1
"ZZ74m","1",63,"1","1",246,"Correct",1
"ZZ74m","1",64,"2","1",228,"Correct",0
"ZZ74m","1",65,"2","2",230,"Correct",0
"ZZ74m","1",66,"1","1",536,"Correct",1
"ZZ74m","1",67,"1","2",440,"Correct",0
"ZZ74m","1",68,"2","1",232,"Correct",0
"ZZ74m","1",69,"1","1",219,"Correct",1
"ZZ74m","1",70,"2","2",464,"Correct",0
"ZZ74m","1",71,"1","1",356,"Correct",1
"ZZ74m","1",72,"1","2",518,"Correct",0
"ZZ74m","1",73,"1","1",261,"Correct",1
"ZZ74m","1",74,"1","1",391,"Correct",1
"ZZ74m","1",75,"1","1",309,"Correct",1
"ZZ74m","1",76,"1","1",260,"Correct",1
"ZZ74m","1",77,"1","1",276,"Correct",1
"ZZ74m","1",78,"2","1",331,"Correct",0
"ZZ74m","1",79,"1","1",496,"Correct",1
"ZZ74m","1",80,"1","1",582,"Incorrect",0
"ZZ74m","1",81,"1","1",180,"Correct",1
"ZZ74m","1",82,"1","1",287,"Correct",1
"ZZ74m","1",83,"1","1",230,"Correct",1
"ZZ74m","1",84,"1","1",50,"Correct",1
"ZZ74m","1",85,"1","1",0,"Too Slow",1
"ZZ74m","1",86,"1","1",229,"Correct",1
"ZZ74m","1",87,"1","1",248,"Correct",1
"ZZ74m","1",88,"1","1",225,"Correct",1
"ZZ74m","1",89,"2","1",225,"Correct",0
"ZZ74m","1",90,"1","1",330,"Correct",1
"ZZ74m","1",91,"1","1",304,"Correct",1
"ZZ74m","1",92,"2","2",560,"Correct",0
"ZZ74m","1",93,"1","2",419,"Correct",0
"ZZ74m","1",94,"1","1",312,"Correct",1
"ZZ74m","1",95,"1","1",373,"Correct",1
"ZZ74m","1",96,"1","1",301,"Correct",1
"ZZ74m","1",97,"1","2",348,"Correct",0
"ZZ74m","1",98,"1","1",231,"Correct",1
"ZZ74m","1",99,"2","2",175,"Correct",0
"ZZ74m","1",100,"1","1",322,"Correct",1
"ZZ74m","1",101,"1","1",301,"Correct",1
"ZZ74m","1",102,"2","2",513,"Correct",0
"ZZ74m","1",103,"1","1",337,"Correct",1
"ZZ74m","1",104,"1","1",322,"Correct",1
"ZZ74m","1",105,"1","1",228,"Correct",1
"ZZ74m","1",106,"2","1",387,"Correct",0
"ZZ74m","1",107,"1","1",239,"Correct",1
"ZZ74m","1",108,"1","1",220,"Correct",1
"ZZ74m","1",109,"1","1",240,"Correct",1
"ZZ74m","1",110,"2","2",601,"Correct",0
"ZZ74m","1",111,"2","2",419,"Correct",0
"ZZ74m","1",112,"1","1",307,"Correct",1
"ZZ74m","1",113,"2","2",380,"Correct",0
"ZZ74m","1",114,"1","1",228,"Correct",1
"ZZ74m","1",115,"1","1",311,"Correct",1
"ZZ74m","1",116,"1","2",397,"Correct",0
"ZZ74m","1",117,"1","1",400,"Correct",1
"ZZ74m","1",118,"1","1",275,"Correct",1
"ZZ74m","1",119,"1","1",306,"Correct",1
"ZZ74m","1",120,"1","1",274,"Correct",1
"ZZ74m","1",121,"1","1",287,"Correct",1
"ZZ74m","1",122,"1","1",310,"Correct",1
"ZZ74m","1",123,"1","1",237,"Correct",1
"ZZ74m","1",124,"2","1",202,"Correct",0
"ZZ74m","1",125,"2","1",593,"Correct",0
"ZZ74m","1",126,"1","1",287,"Correct",1
"ZZ74m","1",127,"1","1",218,"Correct",1
"ZZ74m","1",128,"1","1",251,"Correct",1
"ZZ74m","1",129,"1","1",472,"Correct",1
"ZZ74m","2",1,"1","2",441,"Correct",0
"ZZ74m","2",2,"1","1",356,"Correct",1
"ZZ74m","2",3,"1","1",270,"Correct",1
"ZZ74m","2",4,"2","1",350,"Correct",0
"ZZ74m","2",5,"1","1",341,"Correct",1
"ZZ74m","2",6,"1","1",240,"Correct",1
"ZZ74m","2",7,"1","1",211,"Correct",1
"ZZ74m","2",8,"1","2",460,"Correct",0
"ZZ74m","2",9,"1","2",495,"Correct",0
"ZZ74m","2",10,"1","1",408,"Correct",1
"ZZ74m","2",11,"1","1",346,"Correct",1
"ZZ74m","2",12,"1","1",325,"Correct",1
"ZZ74m","2",13,"2","1",505,"Correct",0
"ZZ74m","2",14,"2","2",486,"Correct",0
"ZZ74m","2",15,"2","2",390,"Correct",0
"ZZ74m","2",16,"1","2",261,"Incorrect",1
"ZZ74m","2",17,"2","1",252,"Too Slow",NA
"ZZ74m","2",18,"1","1",271,"Correct",1
"ZZ74m","2",19,"2","2",607,"Correct",0
"ZZ74m","2",20,"1","1",505,"Correct",1
"ZZ74m","2",21,"1","1",297,"Correct",1
"ZZ74m","2",22,"1","1",277,"Correct",1
"ZZ74m","2",23,"2","1",235,"Correct",0
"ZZ74m","2",24,"1","1",238,"Correct",1
"ZZ74m","2",25,"1","1",277,"Correct",1
"ZZ74m","2",26,"1","1",319,"Correct",1
"ZZ74m","2",27,"1","1",314,"Correct",1
"ZZ74m","2",28,"1","1",249,"Correct",1
"ZZ74m","2",29,"2","2",256,"Correct",0
"ZZ74m","2",30,"1","1",391,"Correct",1
"ZZ74m","2",31,"1","1",328,"Correct",1
"ZZ74m","2",32,"1","1",385,"Correct",1
"ZZ74m","2",33,"1","1",339,"Correct",1
"ZZ74m","2",34,"2","2",177,"Correct",0
"ZZ74m","2",35,"1","1",345,"Correct",1
"ZZ74m","2",36,"1","1",268,"Correct",1
"ZZ74m","2",37,"1","1",298,"Correct",1
"ZZ74m","2",38,"1","1",243,"Correct",1
"ZZ74m","2",39,"1","1",501,"Correct",1
"ZZ74m","2",40,"1","1",255,"Correct",1
"ZZ74m","2",41,"1","1",316,"Correct",1
"ZZ74m","2",42,"1","1",260,"Correct",1
"ZZ74m","2",43,"1","1",252,"Correct",1
"ZZ74m","2",44,"1","1",277,"Correct",1
"ZZ74m","2",45,"1","1",316,"Correct",1
"ZZ74m","2",46,"1","1",412,"Correct",1
"ZZ74m","2",47,"1","1",289,"Correct",1
"ZZ74m","2",48,"2","2",684,"Correct",0
"ZZ74m","2",49,"1","1",285,"Correct",1
"ZZ74m","2",50,"1","1",314,"Correct",1
"ZZ74m","2",51,"1","1",308,"Correct",1
"ZZ74m","2",52,"1","1",249,"Correct",1
"ZZ74m","2",53,"1","1",238,"Correct",1
"ZZ74m","2",54,"1","1",276,"Correct",1
"ZZ74m","2",55,"2","2",120,"Correct",0
"ZZ74m","2",56,"1","1",277,"Correct",1
"ZZ74m","2",57,"2","1",233,"Correct",0
"ZZ74m","2",58,"1","2",478,"Correct",0
"ZZ74m","2",59,"1","1",345,"Correct",1
"ZZ74m","2",60,"1","1",243,"Correct",1
"ZZ74m","2",61,"1","2",393,"Correct",0
"ZZ74m","2",62,"2","1",224,"Correct",0
"ZZ74m","2",63,"1","1",257,"Correct",1
"ZZ74m","2",64,"1","1",340,"Correct",1
"ZZ74m","2",65,"1","2",440,"Correct",0
"ZZ74m","2",66,"1","1",288,"Correct",1
"ZZ74m","2",67,"1","2",402,"Correct",0
"ZZ74m","2",68,"2","1",220,"Correct",0
"ZZ74m","2",69,"2","1",230,"Correct",0
"ZZ74m","2",70,"1","1",363,"Correct",1
"ZZ74m","2",71,"1","1",367,"Correct",1
"ZZ74m","2",72,"1","1",290,"Correct",1
"ZZ74m","2",73,"2","1",201,"Correct",0
"ZZ74m","2",74,"1","2",361,"Correct",0
"ZZ74m","2",75,"1","1",339,"Correct",1
"ZZ74m","2",76,"1","1",309,"Correct",1
"ZZ74m","2",77,"1","1",281,"Correct",1
"ZZ74m","2",78,"1","1",282,"Correct",1
"ZZ74m","2",79,"1","1",237,"Correct",1
"ZZ74m","2",80,"2","2",232,"Correct",0
"ZZ74m","2",81,"1","1",266,"Incorrect",0
"ZZ74m","2",82,"1","2",644,"Correct",0
"ZZ74m","2",83,"1","1",321,"Correct",1
"ZZ74m","2",84,"1","1",389,"Correct",1
"ZZ74m","2",85,"2","2",305,"Correct",0
"ZZ74m","2",86,"1","1",218,"Correct",1
"ZZ74m","2",87,"1","1",336,"Correct",1
"ZZ74m","2",88,"1","1",382,"Correct",1
"ZZ74m","2",89,"1","1",366,"Correct",1
"ZZ74m","2",90,"2","1",234,"Correct",0
"ZZ74m","2",91,"1","1",207,"Correct",1
"ZZ74m","2",92,"1","1",253,"Correct",1
"ZZ74m","2",93,"1","1",327,"Correct",1
"ZZ74m","2",94,"2","1",298,"Correct",0
"ZZ74m","2",95,"2","1",309,"Correct",0
"ZZ74m","2",96,"1","1",446,"Incorrect",0
"ZZ74m","2",97,"2","2",507,"Correct",0
"ZZ74m","2",98,"1","1",244,"Correct",1
"ZZ74m","2",99,"1","1",449,"Correct",1
"ZZ74m","2",100,"1","1",240,"Correct",1
"ZZ74m","2",101,"1","1",313,"Correct",1
"ZZ74m","2",102,"1","2",592,"Correct",0
"ZZ74m","2",103,"1","1",615,"Correct",1
"ZZ74m","2",104,"1","1",321,"Correct",1
"ZZ74m","2",105,"1","1",292,"Correct",1
"ZZ74m","2",106,"1","1",578,"Correct",1
"ZZ74m","2",107,"1","1",408,"Correct",1
"ZZ74m","2",108,"1","1",360,"Correct",1
"ZZ74m","2",109,"1","1",226,"Correct",1
"ZZ74m","2",110,"1","1",248,"Correct",1
"ZZ74m","2",111,"1","1",228,"Correct",1
"ZZ74m","2",112,"1","1",229,"Correct",1
"ZZ74m","2",113,"1","1",224,"Correct",1
"ZZ74m","2",114,"2","1",575,"Correct",0
"ZZ74m","2",115,"1","1",345,"Correct",1
"ZZ74m","2",116,"1","2",204,"Incorrect",1
"ZZ74m","2",117,"1","1",540,"Correct",1
"ZZ74m","2",118,"2","2",280,"Correct",0
"ZZ74m","2",119,"1","1",416,"Correct",1
"ZZ74m","2",120,"2","2",357,"Correct",0
"ZZ74m","2",121,"1","1",306,"Correct",1
"ZZ74m","2",122,"1","1",517,"Correct",1
"ZZ74m","2",123,"1","1",315,"Correct",1
"ZZ74m","2",124,"1","1",513,"Correct",1
"ZZ74m","2",125,"1","1",593,"Too Slow",1
"ZZ74m","2",126,"1","1",310,"Correct",1
"ZZ74m","2",127,"1","2",457,"Correct",0
"ZZ74m","2",128,"1","1",246,"Correct",1
"ZZ74m","2",129,"2","2",595,"Correct",0
"SCFzz","1",1,"1","1",353,"Correct",1
"SCFzz","1",2,"1","1",513,"Correct",1
"SCFzz","1",3,"1","1",444,"Correct",1
"SCFzz","1",4,"1","1",460,"Correct",1
"SCFzz","1",5,"2","1",312,"Correct",0
"SCFzz","1",6,"1","1",370,"Correct",1
"SCFzz","1",7,"1","1",347,"Correct",1
"SCFzz","1",8,"1","2",683,"Correct",0
"SCFzz","1",9,"1","1",521,"Incorrect",0
"SCFzz","1",10,"1","1",481,"Correct",1
"SCFzz","1",11,"1","1",621,"Incorrect",0
"SCFzz","1",12,"2","1",341,"Correct",0
"SCFzz","1",13,"1","1",325,"Correct",1
"SCFzz","1",14,"1","2",517,"Correct",0
"SCFzz","1",15,"2","2",279,"Correct",0
"SCFzz","1",16,"1","1",344,"Correct",1
"SCFzz","1",17,"1","1",577,"Correct",1
"SCFzz","1",18,"1","1",483,"Correct",1
"SCFzz","1",19,"1","1",351,"Correct",1
"SCFzz","1",20,"1","1",506,"Correct",1
"SCFzz","1",21,"1","1",425,"Correct",1
"SCFzz","1",22,"1","2",482,"Correct",0
"SCFzz","1",23,"1","1",433,"Correct",1
"SCFzz","1",24,"1","2",430,"Correct",0
"SCFzz","1",25,"1","1",382,"Correct",1
"SCFzz","1",26,"2","1",299,"Correct",0
"SCFzz","1",27,"1","1",368,"Correct",1
"SCFzz","1",28,"1","1",390,"Correct",1
"SCFzz","1",29,"2","1",304,"Correct",0
"SCFzz","1",30,"1","1",362,"Correct",1
"SCFzz","1",31,"1","1",485,"Correct",1
"SCFzz","1",32,"1","2",511,"Correct",0
"SCFzz","1",33,"2","1",322,"Correct",0
"SCFzz","1",34,"1","1",366,"Correct",1
"SCFzz","1",35,"2","2",401,"Correct",0
"SCFzz","1",36,"1","1",338,"Correct",1
"SCFzz","1",37,"1","1",406,"Correct",1
"SCFzz","1",38,"1","1",346,"Correct",1
"SCFzz","1",39,"1","2",0,"Too Slow",NA
"SCFzz","1",40,"1","1",509,"Correct",1
"SCFzz","1",41,"1","1",699,"Incorrect",0
"SCFzz","1",42,"1","1",348,"Correct",1
"SCFzz","1",43,"2","2",263,"Correct",0
"SCFzz","1",44,"1","1",0,"Too Slow",1
"SCFzz","1",45,"1","2",469,"Correct",0
"SCFzz","1",46,"2","1",256,"Correct",0
"SCFzz","1",47,"1","1",611,"Correct",1
"SCFzz","1",48,"1","1",382,"Correct",1
"SCFzz","1",49,"1","2",471,"Correct",0
"SCFzz","1",50,"1","1",297,"Correct",1
"SCFzz","1",51,"1","1",413,"Correct",1
"SCFzz","1",52,"1","1",281,"Correct",1
"SCFzz","1",53,"2","2",325,"Correct",0
"SCFzz","1",54,"2","2",336,"Correct",0
"SCFzz","1",55,"1","1",315,"Correct",1
"SCFzz","1",56,"1","1",418,"Correct",1
"SCFzz","1",57,"1","1",341,"Correct",1
"SCFzz","1",58,"1","1",358,"Correct",1
"SCFzz","1",59,"1","1",320,"Correct",1
"SCFzz","1",60,"1","1",0,"Too Slow",1
"SCFzz","1",61,"1","1",442,"Correct",1
"SCFzz","1",62,"1","1",548,"Correct",1
"SCFzz","1",63,"1","1",460,"Correct",1
"SCFzz","1",64,"2","1",259,"Correct",0
"SCFzz","1",65,"2","2",721,"Correct",0
"SCFzz","1",66,"1","1",646,"Correct",1
"SCFzz","1",67,"1","2",665,"Correct",0
"SCFzz","1",68,"2","1",314,"Correct",0
"SCFzz","1",69,"1","1",345,"Correct",1
"SCFzz","1",70,"2","2",382,"Correct",0
"SCFzz","1",71,"1","1",496,"Correct",1
"SCFzz","1",72,"1","2",546,"Correct",0
"SCFzz","1",73,"1","1",348,"Correct",1
"SCFzz","1",74,"1","1",318,"Correct",1
"SCFzz","1",75,"1","1",338,"Correct",1
"SCFzz","1",76,"1","1",356,"Correct",1
"SCFzz","1",77,"1","1",398,"Correct",1
"SCFzz","1",78,"2","1",421,"Correct",0
"SCFzz","1",79,"1","1",0,"Too Slow",1
"SCFzz","1",80,"1","1",406,"Correct",1
"SCFzz","1",81,"1","1",345,"Correct",1
"SCFzz","1",82,"1","1",392,"Correct",1
"SCFzz","1",83,"1","1",313,"Correct",1
"SCFzz","1",84,"1","1",395,"Correct",1
"SCFzz","1",85,"1","1",291,"Correct",1
"SCFzz","1",86,"1","1",374,"Incorrect",0
"SCFzz","1",87,"1","1",346,"Correct",1
"SCFzz","1",88,"1","1",362,"Correct",1
"SCFzz","1",89,"2","1",438,"Correct",0
"SCFzz","1",90,"1","1",319,"Correct",1
"SCFzz","1",91,"1","1",352,"Correct",1
"SCFzz","1",92,"2","2",280,"Correct",0
"SCFzz","1",93,"1","2",523,"Correct",0
"SCFzz","1",94,"1","1",415,"Correct",1
"SCFzz","1",95,"1","1",485,"Correct",1
"SCFzz","1",96,"1","1",379,"Correct",1
"SCFzz","1",97,"1","2",481,"Correct",0
"SCFzz","1",98,"1","1",355,"Correct",1
"SCFzz","1",99,"2","2",286,"Correct",0
"SCFzz","1",100,"1","1",433,"Correct",1
"SCFzz","1",101,"1","1",336,"Correct",1
"SCFzz","1",102,"2","2",478,"Correct",0
"SCFzz","1",103,"1","1",377,"Correct",1
"SCFzz","1",104,"1","1",345,"Correct",1
"SCFzz","1",105,"1","1",330,"Correct",1
"SCFzz","1",106,"2","1",268,"Correct",0
"SCFzz","1",107,"1","1",354,"Correct",1
"SCFzz","1",108,"1","1",325,"Correct",1
"SCFzz","1",109,"1","1",385,"Correct",1
"SCFzz","1",110,"2","2",396,"Correct",0
"SCFzz","1",111,"2","2",440,"Correct",0
"SCFzz","1",112,"1","1",303,"Correct",1
"SCFzz","1",113,"2","2",334,"Correct",0
"SCFzz","1",114,"1","1",361,"Correct",1
"SCFzz","1",115,"1","1",548,"Correct",1
"SCFzz","1",116,"1","2",531,"Correct",0
"SCFzz","1",117,"1","1",311,"Correct",1
"SCFzz","1",118,"1","1",315,"Correct",1
"SCFzz","1",119,"1","1",323,"Correct",1
"SCFzz","1",120,"1","1",294,"Correct",1
"SCFzz","1",121,"1","1",348,"Correct",1
"SCFzz","1",122,"1","1",337,"Correct",1
"SCFzz","1",123,"1","1",319,"Correct",1
"SCFzz","1",124,"2","1",248,"Correct",0
"SCFzz","1",125,"2","1",394,"Correct",0
"SCFzz","1",126,"1","1",375,"Correct",1
"SCFzz","1",127,"1","1",365,"Correct",1
"SCFzz","1",128,"1","1",333,"Correct",1
"SCFzz","1",129,"1","1",405,"Correct",1
"SCFzz","2",1,"1","2",535,"Correct",0
"SCFzz","2",2,"1","1",372,"Correct",1
"SCFzz","2",3,"1","1",335,"Correct",1
"SCFzz","2",4,"2","1",368,"Correct",0
"SCFzz","2",5,"1","1",394,"Correct",1
"SCFzz","2",6,"1","1",367,"Correct",1
"SCFzz","2",7,"1","1",301,"Correct",1
"SCFzz","2",8,"1","2",543,"Correct",0
"SCFzz","2",9,"1","2",495,"Correct",0
"SCFzz","2",10,"1","1",550,"Incorrect",0
"SCFzz","2",11,"1","1",309,"Correct",1
"SCFzz","2",12,"1","1",349,"Correct",1
"SCFzz","2",13,"2","1",248,"Correct",0
"SCFzz","2",14,"2","2",330,"Correct",0
"SCFzz","2",15,"2","2",353,"Correct",0
"SCFzz","2",16,"1","2",344,"Too Slow",NA
"SCFzz","2",17,"2","1",577,"Too Slow",NA
"SCFzz","2",18,"1","1",294,"Correct",1
"SCFzz","2",19,"2","2",321,"Correct",0
"SCFzz","2",20,"1","1",268,"Correct",1
"SCFzz","2",21,"1","1",326,"Correct",1
"SCFzz","2",22,"1","1",393,"Correct",1
"SCFzz","2",23,"2","1",418,"Correct",0
"SCFzz","2",24,"1","1",511,"Correct",1
"SCFzz","2",25,"1","1",382,"Correct",1
"SCFzz","2",26,"1","1",312,"Correct",1
"SCFzz","2",27,"1","1",346,"Correct",1
"SCFzz","2",28,"1","1",292,"Correct",1
"SCFzz","2",29,"2","2",311,"Correct",0
"SCFzz","2",30,"1","1",379,"Correct",1
"SCFzz","2",31,"1","1",296,"Correct",1
"SCFzz","2",32,"1","1",265,"Correct",1
"SCFzz","2",33,"1","1",372,"Correct",1
"SCFzz","2",34,"2","2",279,"Correct",0
"SCFzz","2",35,"1","1",320,"Correct",1
"SCFzz","2",36,"1","1",322,"Correct",1
"SCFzz","2",37,"1","1",266,"Correct",1
"SCFzz","2",38,"1","1",339,"Correct",1
"SCFzz","2",39,"1","1",356,"Correct",1
"SCFzz","2",40,"1","1",289,"Correct",1
"SCFzz","2",41,"1","1",326,"Correct",1
"SCFzz","2",42,"1","1",356,"Correct",1
"SCFzz","2",43,"1","1",408,"Correct",1
"SCFzz","2",44,"1","1",286,"Correct",1
"SCFzz","2",45,"1","1",321,"Correct",1
"SCFzz","2",46,"1","1",279,"Correct",1
"SCFzz","2",47,"1","1",272,"Correct",1
"SCFzz","2",48,"2","2",242,"Correct",0
"SCFzz","2",49,"1","1",303,"Correct",1
"SCFzz","2",50,"1","1",357,"Correct",1
"SCFzz","2",51,"1","1",331,"Correct",1
"SCFzz","2",52,"1","1",250,"Correct",1
"SCFzz","2",53,"1","1",243,"Correct",1
"SCFzz","2",54,"1","1",267,"Correct",1
"SCFzz","2",55,"2","2",249,"Correct",0
"SCFzz","2",56,"1","1",275,"Correct",1
"SCFzz","2",57,"2","1",300,"Correct",0
"SCFzz","2",58,"1","2",492,"Correct",0
"SCFzz","2",59,"1","1",545,"Correct",1
"SCFzz","2",60,"1","1",337,"Correct",1
"SCFzz","2",61,"1","2",494,"Correct",0
"SCFzz","2",62,"2","1",311,"Correct",0
"SCFzz","2",63,"1","1",299,"Correct",1
"SCFzz","2",64,"1","1",316,"Correct",1
"SCFzz","2",65,"1","2",379,"Correct",0
"SCFzz","2",66,"1","1",314,"Correct",1
"SCFzz","2",67,"1","2",424,"Correct",0
"SCFzz","2",68,"2","1",296,"Correct",0
"SCFzz","2",69,"2","1",358,"Correct",0
"SCFzz","2",70,"1","1",356,"Correct",1
"SCFzz","2",71,"1","1",472,"Correct",1
"SCFzz","2",72,"1","1",306,"Correct",1
"SCFzz","2",73,"2","1",235,"Correct",0
"SCFzz","2",74,"1","2",493,"Correct",0
"SCFzz","2",75,"1","1",696,"Correct",1
"SCFzz","2",76,"1","1",403,"Correct",1
"SCFzz","2",77,"1","1",314,"Correct",1
"SCFzz","2",78,"1","1",339,"Correct",1
"SCFzz","2",79,"1","1",313,"Correct",1
"SCFzz","2",80,"2","2",306,"Correct",0
"SCFzz","2",81,"1","1",265,"Correct",1
"SCFzz","2",82,"1","2",555,"Correct",0
"SCFzz","2",83,"1","1",382,"Correct",1
"SCFzz","2",84,"1","1",409,"Correct",1
"SCFzz","2",85,"2","2",317,"Correct",0
"SCFzz","2",86,"1","1",264,"Correct",1
"SCFzz","2",87,"1","1",329,"Correct",1
"SCFzz","2",88,"1","1",318,"Correct",1
"SCFzz","2",89,"1","1",280,"Correct",1
"SCFzz","2",90,"2","1",273,"Correct",0
"SCFzz","2",91,"1","1",272,"Correct",1
"SCFzz","2",92,"1","1",322,"Correct",1
"SCFzz","2",93,"1","1",284,"Correct",1
"SCFzz","2",94,"2","1",239,"Correct",0
"SCFzz","2",95,"2","1",281,"Correct",0
"SCFzz","2",96,"1","1",303,"Correct",1
"SCFzz","2",97,"2","2",467,"Correct",0
"SCFzz","2",98,"1","1",304,"Correct",1
"SCFzz","2",99,"1","1",286,"Correct",1
"SCFzz","2",100,"1","1",565,"Correct",1
"SCFzz","2",101,"1","1",517,"Correct",1
"SCFzz","2",102,"1","2",459,"Correct",0
"SCFzz","2",103,"1","1",353,"Correct",1
"SCFzz","2",104,"1","1",449,"Correct",1
"SCFzz","2",105,"1","1",266,"Correct",1
"SCFzz","2",106,"1","1",304,"Correct",1
"SCFzz","2",107,"1","1",283,"Correct",1
"SCFzz","2",108,"1","1",271,"Correct",1
"SCFzz","2",109,"1","1",322,"Correct",1
"SCFzz","2",110,"1","1",331,"Correct",1
"SCFzz","2",111,"1","1",354,"Correct",1
"SCFzz","2",112,"1","1",271,"Correct",1
"SCFzz","2",113,"1","1",270,"Correct",1
"SCFzz","2",114,"2","1",248,"Correct",0
"SCFzz","2",115,"1","1",297,"Correct",1
"SCFzz","2",116,"1","2",490,"Incorrect",1
"SCFzz","2",117,"1","1",301,"Correct",1
"SCFzz","2",118,"2","2",293,"Correct",0
"SCFzz","2",119,"1","1",318,"Correct",1
"SCFzz","2",120,"2","2",272,"Correct",0
"SCFzz","2",121,"1","1",358,"Correct",1
"SCFzz","2",122,"1","1",475,"Correct",1
"SCFzz","2",123,"1","1",565,"Correct",1
"SCFzz","2",124,"1","1",339,"Correct",1
"SCFzz","2",125,"1","1",285,"Correct",1
"SCFzz","2",126,"1","1",311,"Correct",1
"SCFzz","2",127,"1","2",460,"Correct",0
"SCFzz","2",128,"1","1",334,"Correct",1
"SCFzz","2",129,"2","2",312,"Correct",0
"mPWNL","1",1,"1","1",361,"Correct",1
"mPWNL","1",2,"1","1",397,"Correct",1
"mPWNL","1",3,"1","1",416,"Correct",1
"mPWNL","1",4,"1","1",344,"Correct",1
"mPWNL","1",5,"2","1",227,"Correct",0
"mPWNL","1",6,"1","1",290,"Correct",1
"mPWNL","1",7,"1","1",403,"Correct",1
"mPWNL","1",8,"1","2",494,"Correct",0
"mPWNL","1",9,"1","1",295,"Correct",1
"mPWNL","1",10,"1","1",395,"Correct",1
"mPWNL","1",11,"1","1",285,"Correct",1
"mPWNL","1",12,"2","1",230,"Correct",0
"mPWNL","1",13,"1","1",296,"Correct",1
"mPWNL","1",14,"1","2",394,"Correct",0
"mPWNL","1",15,"2","2",307,"Correct",0
"mPWNL","1",16,"1","1",374,"Correct",1
"mPWNL","1",17,"1","1",276,"Correct",1
"mPWNL","1",18,"1","1",356,"Incorrect",0
"mPWNL","1",19,"1","1",317,"Correct",1
"mPWNL","1",20,"1","1",354,"Correct",1
"mPWNL","1",21,"1","1",408,"Correct",1
"mPWNL","1",22,"1","2",452,"Correct",0
"mPWNL","1",23,"1","1",300,"Correct",1
"mPWNL","1",24,"1","2",421,"Correct",0
"mPWNL","1",25,"1","1",296,"Correct",1
"mPWNL","1",26,"2","1",252,"Correct",0
"mPWNL","1",27,"1","1",338,"Correct",1
"mPWNL","1",28,"1","1",330,"Correct",1
"mPWNL","1",29,"2","1",263,"Correct",0
"mPWNL","1",30,"1","1",348,"Correct",1
"mPWNL","1",31,"1","1",368,"Correct",1
"mPWNL","1",32,"1","2",425,"Correct",0
"mPWNL","1",33,"2","1",260,"Correct",0
"mPWNL","1",34,"1","1",302,"Correct",1
"mPWNL","1",35,"2","2",234,"Correct",0
"mPWNL","1",36,"1","1",455,"Correct",1
"mPWNL","1",37,"1","1",330,"Correct",1
"mPWNL","1",38,"1","1",403,"Correct",1
"mPWNL","1",39,"1","2",443,"Correct",0
"mPWNL","1",40,"1","1",279,"Correct",1
"mPWNL","1",41,"1","1",396,"Correct",1
"mPWNL","1",42,"1","1",385,"Correct",1
"mPWNL","1",43,"2","2",240,"Correct",0
"mPWNL","1",44,"1","1",312,"Correct",1
"mPWNL","1",45,"1","2",541,"Correct",0
"mPWNL","1",46,"2","1",219,"Correct",0
"mPWNL","1",47,"1","1",328,"Correct",1
"mPWNL","1",48,"1","1",441,"Correct",1
"mPWNL","1",49,"1","2",372,"Correct",0
"mPWNL","1",50,"1","1",281,"Correct",1
"mPWNL","1",51,"1","1",377,"Incorrect",0
"mPWNL","1",52,"1","1",274,"Correct",1
"mPWNL","1",53,"2","2",250,"Correct",0
"mPWNL","1",54,"2","2",241,"Correct",0
"mPWNL","1",55,"1","1",406,"Correct",1
"mPWNL","1",56,"1","1",503,"Correct",1
"mPWNL","1",57,"1","1",373,"Correct",1
"mPWNL","1",58,"1","1",368,"Correct",1
"mPWNL","1",59,"1","1",481,"Correct",1
"mPWNL","1",60,"1","1",408,"Correct",1
"mPWNL","1",61,"1","1",473,"Correct",1
"mPWNL","1",62,"1","1",445,"Correct",1
"mPWNL","1",63,"1","1",380,"Correct",1
"mPWNL","1",64,"2","1",253,"Correct",0
"mPWNL","1",65,"2","2",273,"Correct",0
"mPWNL","1",66,"1","1",333,"Correct",1
"mPWNL","1",67,"1","2",462,"Incorrect",1
"mPWNL","1",68,"2","1",225,"Correct",0
"mPWNL","1",69,"1","1",323,"Correct",1
"mPWNL","1",70,"2","2",229,"Correct",0
"mPWNL","1",71,"1","1",473,"Correct",1
"mPWNL","1",72,"1","2",488,"Correct",0
"mPWNL","1",73,"1","1",372,"Correct",1
"mPWNL","1",74,"1","1",452,"Correct",1
"mPWNL","1",75,"1","1",396,"Correct",1
"mPWNL","1",76,"1","1",431,"Correct",1
"mPWNL","1",77,"1","1",370,"Correct",1
"mPWNL","1",78,"2","1",218,"Correct",0
"mPWNL","1",79,"1","1",421,"Correct",1
"mPWNL","1",80,"1","1",304,"Correct",1
"mPWNL","1",81,"1","1",403,"Correct",1
"mPWNL","1",82,"1","1",341,"Correct",1
"mPWNL","1",83,"1","1",414,"Correct",1
"mPWNL","1",84,"1","1",411,"Correct",1
"mPWNL","1",85,"1","1",394,"Correct",1
"mPWNL","1",86,"1","1",484,"Correct",1
"mPWNL","1",87,"1","1",414,"Correct",1
"mPWNL","1",88,"1","1",423,"Correct",1
"mPWNL","1",89,"2","1",235,"Correct",0
"mPWNL","1",90,"1","1",410,"Correct",1
"mPWNL","1",91,"1","1",343,"Correct",1
"mPWNL","1",92,"2","2",227,"Correct",0
"mPWNL","1",93,"1","2",466,"Correct",0
"mPWNL","1",94,"1","1",347,"Correct",1
"mPWNL","1",95,"1","1",436,"Correct",1
"mPWNL","1",96,"1","1",476,"Correct",1
"mPWNL","1",97,"1","2",493,"Correct",0
"mPWNL","1",98,"1","1",382,"Correct",1
"mPWNL","1",99,"2","2",266,"Correct",0
"mPWNL","1",100,"1","1",392,"Correct",1
"mPWNL","1",101,"1","1",347,"Correct",1
"mPWNL","1",102,"2","2",350,"Correct",0
"mPWNL","1",103,"1","1",374,"Correct",1
"mPWNL","1",104,"1","1",348,"Correct",1
"mPWNL","1",105,"1","1",374,"Correct",1
"mPWNL","1",106,"2","1",250,"Correct",0
"mPWNL","1",107,"1","1",310,"Correct",1
"mPWNL","1",108,"1","1",343,"Correct",1
"mPWNL","1",109,"1","1",396,"Correct",1
"mPWNL","1",110,"2","2",228,"Correct",0
"mPWNL","1",111,"2","2",267,"Correct",0
"mPWNL","1",112,"1","1",340,"Correct",1
"mPWNL","1",113,"2","2",200,"Correct",0
"mPWNL","1",114,"1","1",336,"Correct",1
"mPWNL","1",115,"1","1",417,"Correct",1
"mPWNL","1",116,"1","2",374,"Correct",0
"mPWNL","1",117,"1","1",383,"Correct",1
"mPWNL","1",118,"1","1",408,"Correct",1
"mPWNL","1",119,"1","1",441,"Correct",1
"mPWNL","1",120,"1","1",354,"Correct",1
"mPWNL","1",121,"1","1",309,"Correct",1
"mPWNL","1",122,"1","1",369,"Correct",1
"mPWNL","1",123,"1","1",415,"Correct",1
"mPWNL","1",124,"2","1",226,"Correct",0
"mPWNL","1",125,"2","1",236,"Correct",0
"mPWNL","1",126,"1","1",298,"Correct",1
"mPWNL","1",127,"1","1",316,"Correct",1
"mPWNL","1",128,"1","1",348,"Correct",1
"mPWNL","1",129,"1","1",327,"Correct",1
"mPWNL","2",1,"1","2",432,"Correct",0
"mPWNL","2",2,"1","1",405,"Correct",1
"mPWNL","2",3,"1","1",396,"Correct",1
"mPWNL","2",4,"2","1",211,"Correct",0
"mPWNL","2",5,"1","1",388,"Correct",1
"mPWNL","2",6,"1","1",383,"Correct",1
"mPWNL","2",7,"1","1",406,"Correct",1
"mPWNL","2",8,"1","2",500,"Correct",0
"mPWNL","2",9,"1","2",480,"Correct",0
"mPWNL","2",10,"1","1",467,"Correct",1
"mPWNL","2",11,"1","1",380,"Correct",1
"mPWNL","2",12,"1","1",408,"Correct",1
"mPWNL","2",13,"2","1",215,"Correct",0
"mPWNL","2",14,"2","2",218,"Correct",0
"mPWNL","2",15,"2","2",223,"Correct",0
"mPWNL","2",16,"1","2",393,"Correct",0
"mPWNL","2",17,"2","1",215,"Correct",0
"mPWNL","2",18,"1","1",393,"Correct",1
"mPWNL","2",19,"2","2",218,"Correct",0
"mPWNL","2",20,"1","1",403,"Correct",1
"mPWNL","2",21,"1","1",403,"Correct",1
"mPWNL","2",22,"1","1",374,"Correct",1
"mPWNL","2",23,"2","1",239,"Correct",0
"mPWNL","2",24,"1","1",371,"Correct",1
"mPWNL","2",25,"1","1",397,"Correct",1
"mPWNL","2",26,"1","1",321,"Correct",1
"mPWNL","2",27,"1","1",365,"Correct",1
"mPWNL","2",28,"1","1",381,"Correct",1
"mPWNL","2",29,"2","2",227,"Correct",0
"mPWNL","2",30,"1","1",350,"Correct",1
"mPWNL","2",31,"1","1",346,"Correct",1
"mPWNL","2",32,"1","1",376,"Correct",1
"mPWNL","2",33,"1","1",396,"Correct",1
"mPWNL","2",34,"2","2",232,"Correct",0
"mPWNL","2",35,"1","1",305,"Correct",1
"mPWNL","2",36,"1","1",381,"Correct",1
"mPWNL","2",37,"1","1",407,"Correct",1
"mPWNL","2",38,"1","1",363,"Correct",1
"mPWNL","2",39,"1","1",355,"Correct",1
"mPWNL","2",40,"1","1",325,"Correct",1
"mPWNL","2",41,"1","1",398,"Correct",1
"mPWNL","2",42,"1","1",394,"Correct",1
"mPWNL","2",43,"1","1",443,"Correct",1
"mPWNL","2",44,"1","1",392,"Correct",1
"mPWNL","2",45,"1","1",404,"Correct",1
"mPWNL","2",46,"1","1",453,"Correct",1
"mPWNL","2",47,"1","1",466,"Correct",1
"mPWNL","2",48,"2","2",242,"Correct",0
"mPWNL","2",49,"1","1",367,"Correct",1
"mPWNL","2",50,"1","1",353,"Correct",1
"mPWNL","2",51,"1","1",289,"Correct",1
"mPWNL","2",52,"1","1",347,"Correct",1
"mPWNL","2",53,"1","1",349,"Correct",1
"mPWNL","2",54,"1","1",306,"Correct",1
"mPWNL","2",55,"2","2",245,"Correct",0
"mPWNL","2",56,"1","1",304,"Correct",1
"mPWNL","2",57,"2","1",234,"Correct",0
"mPWNL","2",58,"1","2",415,"Correct",0
"mPWNL","2",59,"1","1",319,"Correct",1
"mPWNL","2",60,"1","1",340,"Correct",1
"mPWNL","2",61,"1","2",463,"Correct",0
"mPWNL","2",62,"2","1",218,"Correct",0
"mPWNL","2",63,"1","1",288,"Correct",1
"mPWNL","2",64,"1","1",334,"Correct",1
"mPWNL","2",65,"1","2",490,"Correct",0
"mPWNL","2",66,"1","1",384,"Correct",1
"mPWNL","2",67,"1","2",524,"Correct",0
"mPWNL","2",68,"2","1",205,"Correct",0
"mPWNL","2",69,"2","1",156,"Correct",0
"mPWNL","2",70,"1","1",311,"Correct",1
"mPWNL","2",71,"1","1",350,"Correct",1
"mPWNL","2",72,"1","1",393,"Correct",1
"mPWNL","2",73,"2","1",219,"Correct",0
"mPWNL","2",74,"1","2",411,"Correct",0
"mPWNL","2",75,"1","1",335,"Correct",1
"mPWNL","2",76,"1","1",374,"Correct",1
"mPWNL","2",77,"1","1",354,"Correct",1
"mPWNL","2",78,"1","1",365,"Correct",1
"mPWNL","2",79,"1","1",352,"Correct",1
"mPWNL","2",80,"2","2",362,"Correct",0
"mPWNL","2",81,"1","1",347,"Correct",1
"mPWNL","2",82,"1","2",423,"Correct",0
"mPWNL","2",83,"1","1",277,"Correct",1
"mPWNL","2",84,"1","1",294,"Correct",1
"mPWNL","2",85,"2","2",202,"Correct",0
"mPWNL","2",86,"1","1",367,"Correct",1
"mPWNL","2",87,"1","1",327,"Correct",1
"mPWNL","2",88,"1","1",305,"Correct",1
"mPWNL","2",89,"1","1",386,"Correct",1
"mPWNL","2",90,"2","1",236,"Correct",0
"mPWNL","2",91,"1","1",378,"Correct",1
"mPWNL","2",92,"1","1",358,"Correct",1
"mPWNL","2",93,"1","1",476,"Correct",1
"mPWNL","2",94,"2","1",137,"Correct",0
"mPWNL","2",95,"2","1",236,"Correct",0
"mPWNL","2",96,"1","1",361,"Correct",1
"mPWNL","2",97,"2","2",209,"Correct",0
"mPWNL","2",98,"1","1",316,"Correct",1
"mPWNL","2",99,"1","1",345,"Correct",1
"mPWNL","2",100,"1","1",381,"Correct",1
"mPWNL","2",101,"1","1",322,"Correct",1
"mPWNL","2",102,"1","2",435,"Correct",0
"mPWNL","2",103,"1","1",427,"Correct",1
"mPWNL","2",104,"1","1",453,"Correct",1
"mPWNL","2",105,"1","1",381,"Correct",1
"mPWNL","2",106,"1","1",351,"Correct",1
"mPWNL","2",107,"1","1",334,"Correct",1
"mPWNL","2",108,"1","1",354,"Correct",1
"mPWNL","2",109,"1","1",337,"Correct",1
"mPWNL","2",110,"1","1",373,"Correct",1
"mPWNL","2",111,"1","1",386,"Correct",1
"mPWNL","2",112,"1","1",363,"Correct",1
"mPWNL","2",113,"1","1",352,"Correct",1
"mPWNL","2",114,"2","1",213,"Correct",0
"mPWNL","2",115,"1","1",369,"Correct",1
"mPWNL","2",116,"1","2",442,"Correct",0
"mPWNL","2",117,"1","1",299,"Correct",1
"mPWNL","2",118,"2","2",221,"Correct",0
"mPWNL","2",119,"1","1",303,"Correct",1
"mPWNL","2",120,"2","2",257,"Correct",0
"mPWNL","2",121,"1","1",344,"Correct",1
"mPWNL","2",122,"1","1",335,"Correct",1
"mPWNL","2",123,"1","1",309,"Correct",1
"mPWNL","2",124,"1","1",285,"Correct",1
"mPWNL","2",125,"1","1",291,"Correct",1
"mPWNL","2",126,"1","1",382,"Correct",1
"mPWNL","2",127,"1","2",391,"Correct",0
"mPWNL","2",128,"1","1",328,"Correct",1
"mPWNL","2",129,"2","2",226,"Correct",0
"RNg57","1",1,"1","1",369,"Correct",1
"RNg57","1",2,"1","1",448,"Correct",1
"RNg57","1",3,"1","1",433,"Incorrect",0
"RNg57","1",4,"1","1",412,"Correct",1
"RNg57","1",5,"2","1",227,"Correct",0
"RNg57","1",6,"1","1",350,"Correct",1
"RNg57","1",7,"1","1",515,"Correct",1
"RNg57","1",8,"1","2",507,"Correct",0
"RNg57","1",9,"1","1",398,"Correct",1
"RNg57","1",10,"1","1",456,"Correct",1
"RNg57","1",11,"1","1",353,"Correct",1
"RNg57","1",12,"2","1",283,"Correct",0
"RNg57","1",13,"1","1",351,"Correct",1
"RNg57","1",14,"1","2",537,"Incorrect",1
"RNg57","1",15,"2","2",202,"Correct",0
"RNg57","1",16,"1","1",339,"Correct",1
"RNg57","1",17,"1","1",413,"Correct",1
"RNg57","1",18,"1","1",416,"Correct",1
"RNg57","1",19,"1","1",398,"Correct",1
"RNg57","1",20,"1","1",336,"Correct",1
"RNg57","1",21,"1","1",427,"Correct",1
"RNg57","1",22,"1","2",695,"Correct",0
"RNg57","1",23,"1","1",400,"Correct",1
"RNg57","1",24,"1","2",0,"Too Slow",NA
"RNg57","1",25,"1","1",394,"Correct",1
"RNg57","1",26,"2","1",249,"Correct",0
"RNg57","1",27,"1","1",363,"Correct",1
"RNg57","1",28,"1","1",464,"Correct",1
"RNg57","1",29,"2","1",245,"Correct",0
"RNg57","1",30,"1","1",366,"Correct",1
"RNg57","1",31,"1","1",488,"Correct",1
"RNg57","1",32,"1","2",580,"Correct",0
"RNg57","1",33,"2","1",260,"Correct",0
"RNg57","1",34,"1","1",393,"Correct",1
"RNg57","1",35,"2","2",208,"Correct",0
"RNg57","1",36,"1","1",322,"Correct",1
"RNg57","1",37,"1","1",338,"Correct",1
"RNg57","1",38,"1","1",591,"Correct",1
"RNg57","1",39,"1","2",507,"Correct",0
"RNg57","1",40,"1","1",352,"Correct",1
"RNg57","1",41,"1","1",344,"Correct",1
"RNg57","1",42,"1","1",331,"Correct",1
"RNg57","1",43,"2","2",257,"Correct",0
"RNg57","1",44,"1","1",489,"Correct",1
"RNg57","1",45,"1","2",479,"Correct",0
"RNg57","1",46,"2","1",255,"Correct",0
"RNg57","1",47,"1","1",488,"Correct",1
"RNg57","1",48,"1","1",527,"Correct",1
"RNg57","1",49,"1","2",492,"Correct",0
"RNg57","1",50,"1","1",310,"Correct",1
"RNg57","1",51,"1","1",548,"Correct",1
"RNg57","1",52,"1","1",442,"Correct",1
"RNg57","1",53,"2","2",255,"Correct",0
"RNg57","1",54,"2","2",236,"Correct",0
"RNg57","1",55,"1","1",345,"Correct",1
"RNg57","1",56,"1","1",484,"Correct",1
"RNg57","1",57,"1","1",369,"Correct",1
"RNg57","1",58,"1","1",370,"Correct",1
"RNg57","1",59,"1","1",444,"Correct",1
"RNg57","1",60,"1","1",484,"Correct",1
"RNg57","1",61,"1","1",471,"Correct",1
"RNg57","1",62,"1","1",449,"Correct",1
"RNg57","1",63,"1","1",399,"Correct",1
"RNg57","1",64,"2","1",296,"Correct",0
"RNg57","1",65,"2","2",267,"Correct",0
"RNg57","1",66,"1","1",357,"Correct",1
"RNg57","1",67,"1","2",534,"Correct",0
"RNg57","1",68,"2","1",203,"Correct",0
"RNg57","1",69,"1","1",332,"Correct",1
"RNg57","1",70,"2","2",230,"Correct",0
"RNg57","1",71,"1","1",354,"Correct",1
"RNg57","1",72,"1","2",484,"Correct",0
"RNg57","1",73,"1","1",349,"Correct",1
"RNg57","1",74,"1","1",447,"Correct",1
"RNg57","1",75,"1","1",339,"Correct",1
"RNg57","1",76,"1","1",375,"Correct",1
"RNg57","1",77,"1","1",378,"Correct",1
"RNg57","1",78,"2","1",277,"Correct",0
"RNg57","1",79,"1","1",427,"Correct",1
"RNg57","1",80,"1","1",326,"Correct",1
"RNg57","1",81,"1","1",428,"Correct",1
"RNg57","1",82,"1","1",374,"Correct",1
"RNg57","1",83,"1","1",352,"Correct",1
"RNg57","1",84,"1","1",356,"Correct",1
"RNg57","1",85,"1","1",303,"Correct",1
"RNg57","1",86,"1","1",410,"Correct",1
"RNg57","1",87,"1","1",337,"Correct",1
"RNg57","1",88,"1","1",372,"Correct",1
"RNg57","1",89,"2","1",246,"Correct",0
"RNg57","1",90,"1","1",330,"Correct",1
"RNg57","1",91,"1","1",459,"Correct",1
"RNg57","1",92,"2","2",193,"Correct",0
"RNg57","1",93,"1","2",561,"Correct",0
"RNg57","1",94,"1","1",339,"Correct",1
"RNg57","1",95,"1","1",370,"Correct",1
"RNg57","1",96,"1","1",503,"Correct",1
"RNg57","1",97,"1","2",610,"Correct",0
"RNg57","1",98,"1","1",396,"Correct",1
"RNg57","1",99,"2","2",215,"Correct",0
"RNg57","1",100,"1","1",218,"Correct",1
"RNg57","1",101,"1","1",547,"Correct",1
"RNg57","1",102,"2","2",251,"Correct",0
"RNg57","1",103,"1","1",416,"Correct",1
"RNg57","1",104,"1","1",305,"Correct",1
"RNg57","1",105,"1","1",292,"Correct",1
"RNg57","1",106,"2","1",212,"Correct",0
"RNg57","1",107,"1","1",335,"Correct",1
"RNg57","1",108,"1","1",313,"Correct",1
"RNg57","1",109,"1","1",258,"Correct",1
"RNg57","1",110,"2","2",256,"Correct",0
"RNg57","1",111,"2","2",325,"Correct",0
"RNg57","1",112,"1","1",534,"Incorrect",0
"RNg57","1",113,"2","2",349,"Correct",0
"RNg57","1",114,"1","1",333,"Correct",1
"RNg57","1",115,"1","1",274,"Correct",1
"RNg57","1",116,"1","2",476,"Correct",0
"RNg57","1",117,"1","1",355,"Correct",1
"RNg57","1",118,"1","1",414,"Correct",1
"RNg57","1",119,"1","1",303,"Correct",1
"RNg57","1",120,"1","1",321,"Correct",1
"RNg57","1",121,"1","1",398,"Correct",1
"RNg57","1",122,"1","1",385,"Correct",1
"RNg57","1",123,"1","1",372,"Correct",1
"RNg57","1",124,"2","1",376,"Correct",0
"RNg57","1",125,"2","1",331,"Correct",0
"RNg57","1",126,"1","1",284,"Correct",1
"RNg57","1",127,"1","1",309,"Correct",1
"RNg57","1",128,"1","1",328,"Correct",1
"RNg57","1",129,"1","1",415,"Correct",1
"RNg57","2",1,"1","2",369,"Too Slow",NA
"RNg57","2",2,"1","1",543,"Correct",1
"RNg57","2",3,"1","1",377,"Correct",1
"RNg57","2",4,"2","1",339,"Correct",0
"RNg57","2",5,"1","1",378,"Correct",1
"RNg57","2",6,"1","1",325,"Correct",1
"RNg57","2",7,"1","1",325,"Correct",1
"RNg57","2",8,"1","2",503,"Correct",0
"RNg57","2",9,"1","2",552,"Correct",0
"RNg57","2",10,"1","1",406,"Correct",1
"RNg57","2",11,"1","1",411,"Correct",1
"RNg57","2",12,"1","1",292,"Correct",1
"RNg57","2",13,"2","1",247,"Correct",0
"RNg57","2",14,"2","2",259,"Correct",0
"RNg57","2",15,"2","2",255,"Correct",0
"RNg57","2",16,"1","2",568,"Correct",0
"RNg57","2",17,"2","1",298,"Correct",0
"RNg57","2",18,"1","1",272,"Correct",1
"RNg57","2",19,"2","2",264,"Correct",0
"RNg57","2",20,"1","1",349,"Correct",1
"RNg57","2",21,"1","1",351,"Correct",1
"RNg57","2",22,"1","1",282,"Correct",1
"RNg57","2",23,"2","1",305,"Correct",0
"RNg57","2",24,"1","1",389,"Correct",1
"RNg57","2",25,"1","1",350,"Correct",1
"RNg57","2",26,"1","1",301,"Correct",1
"RNg57","2",27,"1","1",359,"Correct",1
"RNg57","2",28,"1","1",280,"Correct",1
"RNg57","2",29,"2","2",293,"Correct",0
"RNg57","2",30,"1","1",393,"Correct",1
"RNg57","2",31,"1","1",338,"Correct",1
"RNg57","2",32,"1","1",319,"Correct",1
"RNg57","2",33,"1","1",450,"Correct",1
"RNg57","2",34,"2","2",322,"Correct",0
"RNg57","2",35,"1","1",450,"Correct",1
"RNg57","2",36,"1","1",287,"Correct",1
"RNg57","2",37,"1","1",335,"Correct",1
"RNg57","2",38,"1","1",315,"Correct",1
"RNg57","2",39,"1","1",330,"Correct",1
"RNg57","2",40,"1","1",415,"Correct",1
"RNg57","2",41,"1","1",433,"Correct",1
"RNg57","2",42,"1","1",276,"Correct",1
"RNg57","2",43,"1","1",302,"Correct",1
"RNg57","2",44,"1","1",271,"Correct",1
"RNg57","2",45,"1","1",439,"Correct",1
"RNg57","2",46,"1","1",290,"Correct",1
"RNg57","2",47,"1","1",490,"Correct",1
"RNg57","2",48,"2","2",366,"Correct",0
"RNg57","2",49,"1","1",366,"Correct",1
"RNg57","2",50,"1","1",511,"Correct",1
"RNg57","2",51,"1","1",399,"Correct",1
"RNg57","2",52,"1","1",287,"Correct",1
"RNg57","2",53,"1","1",296,"Correct",1
"RNg57","2",54,"1","1",278,"Correct",1
"RNg57","2",55,"2","2",305,"Correct",0
"RNg57","2",56,"1","1",516,"Correct",1
"RNg57","2",57,"2","1",268,"Correct",0
"RNg57","2",58,"1","2",224,"Incorrect",1
"RNg57","2",59,"1","1",364,"Correct",1
"RNg57","2",60,"1","1",396,"Incorrect",0
"RNg57","2",61,"1","2",533,"Correct",0
"RNg57","2",62,"2","1",301,"Correct",0
"RNg57","2",63,"1","1",339,"Correct",1
"RNg57","2",64,"1","1",340,"Correct",1
"RNg57","2",65,"1","2",434,"Correct",0
"RNg57","2",66,"1","1",350,"Correct",1
"RNg57","2",67,"1","2",485,"Correct",0
"RNg57","2",68,"2","1",295,"Correct",0
"RNg57","2",69,"2","1",360,"Correct",0
"RNg57","2",70,"1","1",334,"Correct",1
"RNg57","2",71,"1","1",318,"Correct",1
"RNg57","2",72,"1","1",298,"Correct",1
"RNg57","2",73,"2","1",253,"Correct",0
"RNg57","2",74,"1","2",447,"Correct",0
"RNg57","2",75,"1","1",344,"Correct",1
"RNg57","2",76,"1","1",379,"Correct",1
"RNg57","2",77,"1","1",344,"Correct",1
"RNg57","2",78,"1","1",426,"Correct",1
"RNg57","2",79,"1","1",295,"Correct",1
"RNg57","2",80,"2","2",282,"Correct",0
"RNg57","2",81,"1","1",420,"Correct",1
"RNg57","2",82,"1","2",548,"Correct",0
"RNg57","2",83,"1","1",431,"Correct",1
"RNg57","2",84,"1","1",361,"Correct",1
"RNg57","2",85,"2","2",302,"Correct",0
"RNg57","2",86,"1","1",416,"Correct",1
"RNg57","2",87,"1","1",375,"Correct",1
"RNg57","2",88,"1","1",375,"Correct",1
"RNg57","2",89,"1","1",363,"Correct",1
"RNg57","2",90,"2","1",251,"Correct",0
"RNg57","2",91,"1","1",346,"Correct",1
"RNg57","2",92,"1","1",299,"Correct",1
"RNg57","2",93,"1","1",391,"Correct",1
"RNg57","2",94,"2","1",338,"Correct",0
"RNg57","2",95,"2","1",506,"Correct",0
"RNg57","2",96,"1","1",256,"Correct",1
"RNg57","2",97,"2","2",314,"Correct",0
"RNg57","2",98,"1","1",372,"Correct",1
"RNg57","2",99,"1","1",311,"Correct",1
"RNg57","2",100,"1","1",336,"Correct",1
"RNg57","2",101,"1","1",361,"Correct",1
"RNg57","2",102,"1","2",492,"Correct",0
"RNg57","2",103,"1","1",373,"Correct",1
"RNg57","2",104,"1","1",501,"Incorrect",0
"RNg57","2",105,"1","1",415,"Correct",1
"RNg57","2",106,"1","1",482,"Correct",1
"RNg57","2",107,"1","1",412,"Correct",1
"RNg57","2",108,"1","1",422,"Correct",1
"RNg57","2",109,"1","1",308,"Correct",1
"RNg57","2",110,"1","1",313,"Correct",1
"RNg57","2",111,"1","1",382,"Correct",1
"RNg57","2",112,"1","1",353,"Correct",1
"RNg57","2",113,"1","1",293,"Correct",1
"RNg57","2",114,"2","1",237,"Correct",0
"RNg57","2",115,"1","1",319,"Correct",1
"RNg57","2",116,"1","2",514,"Correct",0
"RNg57","2",117,"1","1",324,"Correct",1
"RNg57","2",118,"2","2",277,"Correct",0
"RNg57","2",119,"1","1",312,"Correct",1
"RNg57","2",120,"2","2",219,"Correct",0
"RNg57","2",121,"1","1",306,"Correct",1
"RNg57","2",122,"1","1",410,"Correct",1
"RNg57","2",123,"1","1",289,"Correct",1
"RNg57","2",124,"1","1",384,"Correct",1
"RNg57","2",125,"1","1",336,"Correct",1
"RNg57","2",126,"1","1",321,"Correct",1
"RNg57","2",127,"1","2",354,"Incorrect",1
"RNg57","2",128,"1","1",328,"Too Slow",1
"RNg57","2",129,"2","2",237,"Correct",0
"F252w","1",1,"1","1",262,"Correct",1
"F252w","1",2,"1","1",269,"Correct",1
"F252w","1",3,"1","1",246,"Correct",1
"F252w","1",4,"1","1",272,"Correct",1
"F252w","1",5,"2","1",656,"Correct",0
"F252w","1",6,"1","1",425,"Correct",1
"F252w","1",7,"1","1",522,"Correct",1
"F252w","1",8,"1","2",562,"Correct",0
"F252w","1",9,"1","1",725,"Correct",1
"F252w","1",10,"1","1",302,"Correct",1
"F252w","1",11,"1","1",342,"Correct",1
"F252w","1",12,"2","1",300,"Correct",0
"F252w","1",13,"1","1",488,"Correct",1
"F252w","1",14,"1","2",288,"Correct",0
"F252w","1",15,"2","2",221,"Correct",0
"F252w","1",16,"1","1",396,"Correct",1
"F252w","1",17,"1","1",450,"Correct",1
"F252w","1",18,"1","1",440,"Correct",1
"F252w","1",19,"1","1",350,"Correct",1
"F252w","1",20,"1","1",317,"Correct",1
"F252w","1",21,"1","1",297,"Correct",1
"F252w","1",22,"1","2",425,"Correct",0
"F252w","1",23,"1","1",417,"Correct",1
"F252w","1",24,"1","2",530,"Correct",0
"F252w","1",25,"1","1",536,"Correct",1
"F252w","1",26,"2","1",0,"Too Slow",NA
"F252w","1",27,"1","1",474,"Correct",1
"F252w","1",28,"1","1",292,"Correct",1
"F252w","1",29,"2","1",273,"Correct",0
"F252w","1",30,"1","1",274,"Correct",1
"F252w","1",31,"1","1",295,"Correct",1
"F252w","1",32,"1","2",423,"Correct",0
"F252w","1",33,"2","1",447,"Correct",0
"F252w","1",34,"1","1",322,"Correct",1
"F252w","1",35,"2","2",358,"Correct",0
"F252w","1",36,"1","1",497,"Correct",1
"F252w","1",37,"1","1",0,"Too Slow",1
"F252w","1",38,"1","1",338,"Correct",1
"F252w","1",39,"1","2",460,"Correct",0
"F252w","1",40,"1","1",340,"Correct",1
"F252w","1",41,"1","1",368,"Correct",1
"F252w","1",42,"1","1",444,"Correct",1
"F252w","1",43,"2","2",567,"Correct",0
"F252w","1",44,"1","1",388,"Correct",1
"F252w","1",45,"1","2",494,"Correct",0
"F252w","1",46,"2","1",638,"Correct",0
"F252w","1",47,"1","1",544,"Correct",1
"F252w","1",48,"1","1",642,"Correct",1
"F252w","1",49,"1","2",516,"Correct",0
"F252w","1",50,"1","1",459,"Correct",1
"F252w","1",51,"1","1",507,"Correct",1
"F252w","1",52,"1","1",543,"Correct",1
"F252w","1",53,"2","2",0,"Too Slow",NA
"F252w","1",54,"2","2",551,"Correct",0
"F252w","1",55,"1","1",369,"Correct",1
"F252w","1",56,"1","1",462,"Incorrect",0
"F252w","1",57,"1","1",590,"Correct",1
"F252w","1",58,"1","1",466,"Correct",1
"F252w","1",59,"1","1",437,"Correct",1
"F252w","1",60,"1","1",394,"Correct",1
"F252w","1",61,"1","1",379,"Correct",1
"F252w","1",62,"1","1",308,"Correct",1
"F252w","1",63,"1","1",234,"Correct",1
"F252w","1",64,"2","1",517,"Correct",0
"F252w","1",65,"2","2",466,"Correct",0
"F252w","1",66,"1","1",730,"Correct",1
"F252w","1",67,"1","2",492,"Correct",0
"F252w","1",68,"2","1",237,"Correct",0
"F252w","1",69,"1","1",381,"Correct",1
"F252w","1",70,"2","2",500,"Correct",0
"F252w","1",71,"1","1",450,"Correct",1
"F252w","1",72,"1","2",627,"Correct",0
"F252w","1",73,"1","1",620,"Correct",1
"F252w","1",74,"1","1",540,"Correct",1
"F252w","1",75,"1","1",422,"Correct",1
"F252w","1",76,"1","1",0,"Too Slow",1
"F252w","1",77,"1","1",539,"Correct",1
"F252w","1",78,"2","1",0,"Too Slow",NA
"F252w","1",79,"1","1",225,"Correct",1
"F252w","1",80,"1","1",266,"Correct",1
"F252w","1",81,"1","1",316,"Correct",1
"F252w","1",82,"1","1",311,"Correct",1
"F252w","1",83,"1","1",370,"Correct",1
"F252w","1",84,"1","1",328,"Correct",1
"F252w","1",85,"1","1",224,"Correct",1
"F252w","1",86,"1","1",304,"Correct",1
"F252w","1",87,"1","1",291,"Correct",1
"F252w","1",88,"1","1",369,"Correct",1
"F252w","1",89,"2","1",473,"Incorrect",1
"F252w","1",90,"1","1",337,"Correct",1
"F252w","1",91,"1","1",397,"Correct",1
"F252w","1",92,"2","2",265,"Correct",0
"F252w","1",93,"1","2",582,"Correct",0
"F252w","1",94,"1","1",459,"Correct",1
"F252w","1",95,"1","1",407,"Correct",1
"F252w","1",96,"1","1",325,"Correct",1
"F252w","1",97,"1","2",404,"Correct",0
"F252w","1",98,"1","1",308,"Correct",1
"F252w","1",99,"2","2",239,"Correct",0
"F252w","1",100,"1","1",486,"Correct",1
"F252w","1",101,"1","1",297,"Correct",1
"F252w","1",102,"2","2",198,"Correct",0
"F252w","1",103,"1","1",224,"Correct",1
"F252w","1",104,"1","1",377,"Correct",1
"F252w","1",105,"1","1",381,"Correct",1
"F252w","1",106,"2","1",222,"Correct",0
"F252w","1",107,"1","1",266,"Correct",1
"F252w","1",108,"1","1",276,"Correct",1
"F252w","1",109,"1","1",343,"Correct",1
"F252w","1",110,"2","2",320,"Correct",0
"F252w","1",111,"2","2",511,"Correct",0
"F252w","1",112,"1","1",378,"Correct",1
"F252w","1",113,"2","2",524,"Correct",0
"F252w","1",114,"1","1",525,"Correct",1
"F252w","1",115,"1","1",431,"Correct",1
"F252w","1",116,"1","2",522,"Correct",0
"F252w","1",117,"1","1",393,"Correct",1
"F252w","1",118,"1","1",270,"Correct",1
"F252w","1",119,"1","1",437,"Correct",1
"F252w","1",120,"1","1",393,"Correct",1
"F252w","1",121,"1","1",301,"Correct",1
"F252w","1",122,"1","1",449,"Correct",1
"F252w","1",123,"1","1",468,"Correct",1
"F252w","1",124,"2","1",370,"Correct",0
"F252w","1",125,"2","1",297,"Correct",0
"F252w","1",126,"1","1",489,"Correct",1
"F252w","1",127,"1","1",461,"Correct",1
"F252w","1",128,"1","1",354,"Correct",1
"F252w","1",129,"1","1",443,"Correct",1
"F252w","2",1,"1","2",347,"Incorrect",1
"F252w","2",2,"1","1",335,"Correct",1
"F252w","2",3,"1","1",288,"Correct",1
"F252w","2",4,"2","1",364,"Correct",0
"F252w","2",5,"1","1",386,"Correct",1
"F252w","2",6,"1","1",425,"Too Slow",1
"F252w","2",7,"1","1",522,"Too Slow",1
"F252w","2",8,"1","2",502,"Correct",0
"F252w","2",9,"1","2",520,"Correct",0
"F252w","2",10,"1","1",497,"Incorrect",0
"F252w","2",11,"1","1",380,"Correct",1
"F252w","2",12,"1","1",356,"Correct",1
"F252w","2",13,"2","1",491,"Correct",0
"F252w","2",14,"2","2",409,"Correct",0
"F252w","2",15,"2","2",370,"Correct",0
"F252w","2",16,"1","2",483,"Correct",0
"F252w","2",17,"2","1",216,"Correct",0
"F252w","2",18,"1","1",723,"Incorrect",0
"F252w","2",19,"2","2",438,"Correct",0
"F252w","2",20,"1","1",469,"Correct",1
"F252w","2",21,"1","1",479,"Correct",1
"F252w","2",22,"1","1",424,"Correct",1
"F252w","2",23,"2","1",297,"Correct",0
"F252w","2",24,"1","1",361,"Correct",1
"F252w","2",25,"1","1",559,"Correct",1
"F252w","2",26,"1","1",448,"Correct",1
"F252w","2",27,"1","1",426,"Correct",1
"F252w","2",28,"1","1",638,"Correct",1
"F252w","2",29,"2","2",256,"Correct",0
"F252w","2",30,"1","1",273,"Correct",1
"F252w","2",31,"1","1",354,"Correct",1
"F252w","2",32,"1","1",525,"Correct",1
"F252w","2",33,"1","1",477,"Correct",1
"F252w","2",34,"2","2",234,"Correct",0
"F252w","2",35,"1","1",387,"Correct",1
"F252w","2",36,"1","1",303,"Correct",1
"F252w","2",37,"1","1",376,"Correct",1
"F252w","2",38,"1","1",379,"Correct",1
"F252w","2",39,"1","1",349,"Correct",1
"F252w","2",40,"1","1",301,"Correct",1
"F252w","2",41,"1","1",278,"Correct",1
"F252w","2",42,"1","1",346,"Correct",1
"F252w","2",43,"1","1",307,"Correct",1
"F252w","2",44,"1","1",264,"Correct",1
"F252w","2",45,"1","1",404,"Correct",1
"F252w","2",46,"1","1",386,"Correct",1
"F252w","2",47,"1","1",312,"Correct",1
"F252w","2",48,"2","2",295,"Correct",0
"F252w","2",49,"1","1",228,"Correct",1
"F252w","2",50,"1","1",401,"Correct",1
"F252w","2",51,"1","1",368,"Correct",1
"F252w","2",52,"1","1",404,"Correct",1
"F252w","2",53,"1","1",316,"Correct",1
"F252w","2",54,"1","1",234,"Correct",1
"F252w","2",55,"2","2",386,"Correct",0
"F252w","2",56,"1","1",235,"Correct",1
"F252w","2",57,"2","1",333,"Correct",0
"F252w","2",58,"1","2",488,"Correct",0
"F252w","2",59,"1","1",244,"Correct",1
"F252w","2",60,"1","1",365,"Correct",1
"F252w","2",61,"1","2",292,"Incorrect",1
"F252w","2",62,"2","1",236,"Correct",0
"F252w","2",63,"1","1",295,"Correct",1
"F252w","2",64,"1","1",324,"Correct",1
"F252w","2",65,"1","2",453,"Correct",0
"F252w","2",66,"1","1",485,"Correct",1
"F252w","2",67,"1","2",536,"Correct",0
"F252w","2",68,"2","1",538,"Correct",0
"F252w","2",69,"2","1",381,"Too Slow",NA
"F252w","2",70,"1","1",303,"Correct",1
"F252w","2",71,"1","1",338,"Correct",1
"F252w","2",72,"1","1",292,"Correct",1
"F252w","2",73,"2","1",192,"Correct",0
"F252w","2",74,"1","2",216,"Incorrect",1
"F252w","2",75,"1","1",361,"Incorrect",0
"F252w","2",76,"1","1",336,"Correct",1
"F252w","2",77,"1","1",420,"Correct",1
"F252w","2",78,"1","1",267,"Correct",1
"F252w","2",79,"1","1",247,"Correct",1
"F252w","2",80,"2","2",227,"Correct",0
"F252w","2",81,"1","1",446,"Correct",1
"F252w","2",82,"1","2",392,"Correct",0
"F252w","2",83,"1","1",551,"Correct",1
"F252w","2",84,"1","1",328,"Too Slow",1
"F252w","2",85,"2","2",443,"Correct",0
"F252w","2",86,"1","1",510,"Correct",1
"F252w","2",87,"1","1",428,"Correct",1
"F252w","2",88,"1","1",405,"Correct",1
"F252w","2",89,"1","1",343,"Correct",1
"F252w","2",90,"2","1",286,"Correct",0
"F252w","2",91,"1","1",370,"Correct",1
"F252w","2",92,"1","1",405,"Correct",1
"F252w","2",93,"1","1",582,"Too Slow",1
"F252w","2",94,"2","1",424,"Correct",0
"F252w","2",95,"2","1",411,"Correct",0
"F252w","2",96,"1","1",358,"Correct",1
"F252w","2",97,"2","2",298,"Correct",0
"F252w","2",98,"1","1",305,"Correct",1
"F252w","2",99,"1","1",280,"Correct",1
"F252w","2",100,"1","1",273,"Correct",1
"F252w","2",101,"1","1",332,"Correct",1
"F252w","2",102,"1","2",501,"Correct",0
"F252w","2",103,"1","1",255,"Correct",1
"F252w","2",104,"1","1",233,"Correct",1
"F252w","2",105,"1","1",299,"Correct",1
"F252w","2",106,"1","1",420,"Correct",1
"F252w","2",107,"1","1",228,"Correct",1
"F252w","2",108,"1","1",333,"Correct",1
"F252w","2",109,"1","1",231,"Correct",1
"F252w","2",110,"1","1",553,"Correct",1
"F252w","2",111,"1","1",322,"Correct",1
"F252w","2",112,"1","1",416,"Correct",1
"F252w","2",113,"1","1",235,"Correct",1
"F252w","2",114,"2","1",426,"Incorrect",1
"F252w","2",115,"1","1",505,"Correct",1
"F252w","2",116,"1","2",573,"Correct",0
"F252w","2",117,"1","1",343,"Correct",1
"F252w","2",118,"2","2",608,"Correct",0
"F252w","2",119,"1","1",247,"Correct",1
"F252w","2",120,"2","2",473,"Correct",0
"F252w","2",121,"1","1",456,"Correct",1
"F252w","2",122,"1","1",326,"Correct",1
"F252w","2",123,"1","1",468,"Too Slow",1
"F252w","2",124,"1","1",387,"Correct",1
"F252w","2",125,"1","1",393,"Correct",1
"F252w","2",126,"1","1",241,"Correct",1
"F252w","2",127,"1","2",687,"Correct",0
"F252w","2",128,"1","1",296,"Correct",1
"F252w","2",129,"2","2",597,"Correct",0
"3WBbQ","1",1,"1","1",329,"Correct",1
"3WBbQ","1",2,"1","1",425,"Incorrect",0
"3WBbQ","1",3,"1","1",295,"Correct",1
"3WBbQ","1",4,"1","1",369,"Correct",1
"3WBbQ","1",5,"2","1",220,"Correct",0
"3WBbQ","1",6,"1","1",277,"Correct",1
"3WBbQ","1",7,"1","1",504,"Correct",1
"3WBbQ","1",8,"1","2",579,"Correct",0
"3WBbQ","1",9,"1","1",604,"Correct",1
"3WBbQ","1",10,"1","1",526,"Correct",1
"3WBbQ","1",11,"1","1",460,"Correct",1
"3WBbQ","1",12,"2","1",220,"Correct",0
"3WBbQ","1",13,"1","1",336,"Correct",1
"3WBbQ","1",14,"1","2",414,"Correct",0
"3WBbQ","1",15,"2","2",192,"Correct",0
"3WBbQ","1",16,"1","1",237,"Correct",1
"3WBbQ","1",17,"1","1",594,"Correct",1
"3WBbQ","1",18,"1","1",453,"Correct",1
"3WBbQ","1",19,"1","1",284,"Correct",1
"3WBbQ","1",20,"1","1",464,"Correct",1
"3WBbQ","1",21,"1","1",327,"Correct",1
"3WBbQ","1",22,"1","2",634,"Correct",0
"3WBbQ","1",23,"1","1",605,"Correct",1
"3WBbQ","1",24,"1","2",437,"Correct",0
"3WBbQ","1",25,"1","1",390,"Correct",1
"3WBbQ","1",26,"2","1",225,"Correct",0
"3WBbQ","1",27,"1","1",493,"Incorrect",0
"3WBbQ","1",28,"1","1",332,"Correct",1
"3WBbQ","1",29,"2","1",224,"Correct",0
"3WBbQ","1",30,"1","1",305,"Correct",1
"3WBbQ","1",31,"1","1",470,"Correct",1
"3WBbQ","1",32,"1","2",455,"Incorrect",1
"3WBbQ","1",33,"2","1",212,"Correct",0
"3WBbQ","1",34,"1","1",269,"Correct",1
"3WBbQ","1",35,"2","2",28,"Correct",0
"3WBbQ","1",36,"1","1",244,"Correct",1
"3WBbQ","1",37,"1","1",319,"Correct",1
"3WBbQ","1",38,"1","1",457,"Correct",1
"3WBbQ","1",39,"1","2",294,"Correct",0
"3WBbQ","1",40,"1","1",312,"Correct",1
"3WBbQ","1",41,"1","1",296,"Correct",1
"3WBbQ","1",42,"1","1",286,"Correct",1
"3WBbQ","1",43,"2","2",200,"Correct",0
"3WBbQ","1",44,"1","1",278,"Correct",1
"3WBbQ","1",45,"1","2",493,"Correct",0
"3WBbQ","1",46,"2","1",10,"Incorrect",1
"3WBbQ","1",47,"1","1",241,"Correct",1
"3WBbQ","1",48,"1","1",478,"Correct",1
"3WBbQ","1",49,"1","2",333,"Incorrect",1
"3WBbQ","1",50,"1","1",667,"Correct",1
"3WBbQ","1",51,"1","1",453,"Correct",1
"3WBbQ","1",52,"1","1",424,"Correct",1
"3WBbQ","1",53,"2","2",184,"Correct",0
"3WBbQ","1",54,"2","2",238,"Correct",0
"3WBbQ","1",55,"1","1",288,"Correct",1
"3WBbQ","1",56,"1","1",338,"Correct",1
"3WBbQ","1",57,"1","1",304,"Correct",1
"3WBbQ","1",58,"1","1",347,"Correct",1
"3WBbQ","1",59,"1","1",410,"Correct",1
"3WBbQ","1",60,"1","1",227,"Correct",1
"3WBbQ","1",61,"1","1",322,"Correct",1
"3WBbQ","1",62,"1","1",275,"Correct",1
"3WBbQ","1",63,"1","1",305,"Correct",1
"3WBbQ","1",64,"2","1",188,"Correct",0
"3WBbQ","1",65,"2","2",208,"Correct",0
"3WBbQ","1",66,"1","1",300,"Correct",1
"3WBbQ","1",67,"1","2",260,"Incorrect",1
"3WBbQ","1",68,"2","1",178,"Correct",0
"3WBbQ","1",69,"1","1",306,"Correct",1
"3WBbQ","1",70,"2","2",238,"Correct",0
"3WBbQ","1",71,"1","1",234,"Correct",1
"3WBbQ","1",72,"1","2",544,"Correct",0
"3WBbQ","1",73,"1","1",310,"Correct",1
"3WBbQ","1",74,"1","1",311,"Correct",1
"3WBbQ","1",75,"1","1",304,"Correct",1
"3WBbQ","1",76,"1","1",359,"Correct",1
"3WBbQ","1",77,"1","1",330,"Correct",1
"3WBbQ","1",78,"2","1",189,"Correct",0
"3WBbQ","1",79,"1","1",537,"Correct",1
"3WBbQ","1",80,"1","1",348,"Correct",1
"3WBbQ","1",81,"1","1",316,"Correct",1
"3WBbQ","1",82,"1","1",318,"Correct",1
"3WBbQ","1",83,"1","1",275,"Correct",1
"3WBbQ","1",84,"1","1",344,"Correct",1
"3WBbQ","1",85,"1","1",340,"Correct",1
"3WBbQ","1",86,"1","1",361,"Correct",1
"3WBbQ","1",87,"1","1",338,"Correct",1
"3WBbQ","1",88,"1","1",300,"Correct",1
"3WBbQ","1",89,"2","1",173,"Correct",0
"3WBbQ","1",90,"1","1",274,"Correct",1
"3WBbQ","1",91,"1","1",256,"Correct",1
"3WBbQ","1",92,"2","2",0,"Incorrect",1
"3WBbQ","1",93,"1","2",501,"Correct",0
"3WBbQ","1",94,"1","1",255,"Correct",1
"3WBbQ","1",95,"1","1",244,"Correct",1
"3WBbQ","1",96,"1","1",364,"Correct",1
"3WBbQ","1",97,"1","2",583,"Correct",0
"3WBbQ","1",98,"1","1",448,"Correct",1
"3WBbQ","1",99,"2","2",272,"Correct",0
"3WBbQ","1",100,"1","1",291,"Correct",1
"3WBbQ","1",101,"1","1",448,"Correct",1
"3WBbQ","1",102,"2","2",50,"Correct",0
"3WBbQ","1",103,"1","1",322,"Correct",1
"3WBbQ","1",104,"1","1",427,"Correct",1
"3WBbQ","1",105,"1","1",358,"Correct",1
"3WBbQ","1",106,"2","1",228,"Correct",0
"3WBbQ","1",107,"1","1",358,"Correct",1
"3WBbQ","1",108,"1","1",330,"Correct",1
"3WBbQ","1",109,"1","1",495,"Correct",1
"3WBbQ","1",110,"2","2",239,"Correct",0
"3WBbQ","1",111,"2","2",246,"Correct",0
"3WBbQ","1",112,"1","1",223,"Correct",1
"3WBbQ","1",113,"2","2",200,"Correct",0
"3WBbQ","1",114,"1","1",249,"Correct",1
"3WBbQ","1",115,"1","1",651,"Correct",1
"3WBbQ","1",116,"1","2",351,"Incorrect",1
"3WBbQ","1",117,"1","1",237,"Correct",1
"3WBbQ","1",118,"1","1",275,"Correct",1
"3WBbQ","1",119,"1","1",251,"Correct",1
"3WBbQ","1",120,"1","1",283,"Correct",1
"3WBbQ","1",121,"1","1",340,"Correct",1
"3WBbQ","1",122,"1","1",280,"Correct",1
"3WBbQ","1",123,"1","1",321,"Correct",1
"3WBbQ","1",124,"2","1",212,"Correct",0
"3WBbQ","1",125,"2","1",217,"Correct",0
"3WBbQ","1",126,"1","1",345,"Correct",1
"3WBbQ","1",127,"1","1",306,"Correct",1
"3WBbQ","1",128,"1","1",458,"Correct",1
"3WBbQ","1",129,"1","1",350,"Correct",1
"3WBbQ","2",1,"1","2",310,"Incorrect",1
"3WBbQ","2",2,"1","1",425,"Too Slow",1
"3WBbQ","2",3,"1","1",295,"Too Slow",1
"3WBbQ","2",4,"2","1",369,"Too Slow",NA
"3WBbQ","2",5,"1","1",433,"Correct",1
"3WBbQ","2",6,"1","1",299,"Correct",1
"3WBbQ","2",7,"1","1",325,"Correct",1
"3WBbQ","2",8,"1","2",579,"Too Slow",NA
"3WBbQ","2",9,"1","2",510,"Correct",0
"3WBbQ","2",10,"1","1",369,"Correct",1
"3WBbQ","2",11,"1","1",269,"Correct",1
"3WBbQ","2",12,"1","1",258,"Correct",1
"3WBbQ","2",13,"2","1",160,"Correct",0
"3WBbQ","2",14,"2","2",191,"Correct",0
"3WBbQ","2",15,"2","2",232,"Correct",0
"3WBbQ","2",16,"1","2",254,"Incorrect",1
"3WBbQ","2",17,"2","1",0,"Incorrect",1
"3WBbQ","2",18,"1","1",529,"Correct",1
"3WBbQ","2",19,"2","2",231,"Correct",0
"3WBbQ","2",20,"1","1",314,"Correct",1
"3WBbQ","2",21,"1","1",423,"Correct",1
"3WBbQ","2",22,"1","1",264,"Correct",1
"3WBbQ","2",23,"2","1",17,"Correct",0
"3WBbQ","2",24,"1","1",204,"Correct",1
"3WBbQ","2",25,"1","1",305,"Correct",1
"3WBbQ","2",26,"1","1",270,"Correct",1
"3WBbQ","2",27,"1","1",224,"Correct",1
"3WBbQ","2",28,"1","1",233,"Correct",1
"3WBbQ","2",29,"2","2",186,"Correct",0
"3WBbQ","2",30,"1","1",312,"Correct",1
"3WBbQ","2",31,"1","1",464,"Correct",1
"3WBbQ","2",32,"1","1",235,"Correct",1
"3WBbQ","2",33,"1","1",339,"Correct",1
"3WBbQ","2",34,"2","2",220,"Correct",0
"3WBbQ","2",35,"1","1",238,"Correct",1
"3WBbQ","2",36,"1","1",244,"Too Slow",1
"3WBbQ","2",37,"1","1",254,"Correct",1
"3WBbQ","2",38,"1","1",430,"Correct",1
"3WBbQ","2",39,"1","1",319,"Correct",1
"3WBbQ","2",40,"1","1",246,"Correct",1
"3WBbQ","2",41,"1","1",425,"Correct",1
"3WBbQ","2",42,"1","1",240,"Correct",1
"3WBbQ","2",43,"1","1",352,"Incorrect",0
"3WBbQ","2",44,"1","1",246,"Correct",1
"3WBbQ","2",45,"1","1",543,"Correct",1
"3WBbQ","2",46,"1","1",325,"Correct",1
"3WBbQ","2",47,"1","1",242,"Correct",1
"3WBbQ","2",48,"2","2",163,"Correct",0
"3WBbQ","2",49,"1","1",252,"Correct",1
"3WBbQ","2",50,"1","1",320,"Incorrect",0
"3WBbQ","2",51,"1","1",232,"Correct",1
"3WBbQ","2",52,"1","1",245,"Correct",1
"3WBbQ","2",53,"1","1",194,"Correct",1
"3WBbQ","2",54,"1","1",213,"Correct",1
"3WBbQ","2",55,"2","2",200,"Correct",0
"3WBbQ","2",56,"1","1",316,"Correct",1
"3WBbQ","2",57,"2","1",224,"Correct",0
"3WBbQ","2",58,"1","2",335,"Incorrect",1
"3WBbQ","2",59,"1","1",0,"Incorrect",0
"3WBbQ","2",60,"1","1",308,"Correct",1
"3WBbQ","2",61,"1","2",405,"Incorrect",1
"3WBbQ","2",62,"2","1",0,"Incorrect",1
"3WBbQ","2",63,"1","1",338,"Incorrect",0
"3WBbQ","2",64,"1","1",334,"Correct",1
"3WBbQ","2",65,"1","2",490,"Correct",0
"3WBbQ","2",66,"1","1",390,"Correct",1
"3WBbQ","2",67,"1","2",356,"Incorrect",1
"3WBbQ","2",68,"2","1",220,"Correct",0
"3WBbQ","2",69,"2","1",214,"Correct",0
"3WBbQ","2",70,"1","1",541,"Correct",1
"3WBbQ","2",71,"1","1",327,"Correct",1
"3WBbQ","2",72,"1","1",313,"Incorrect",0
"3WBbQ","2",73,"2","1",197,"Correct",0
"3WBbQ","2",74,"1","2",648,"Incorrect",1
"3WBbQ","2",75,"1","1",309,"Correct",1
"3WBbQ","2",76,"1","1",593,"Correct",1
"3WBbQ","2",77,"1","1",748,"Incorrect",0
"3WBbQ","2",78,"1","1",352,"Correct",1
"3WBbQ","2",79,"1","1",395,"Correct",1
"3WBbQ","2",80,"2","2",214,"Correct",0
"3WBbQ","2",81,"1","1",417,"Correct",1
"3WBbQ","2",82,"1","2",318,"Too Slow",NA
"3WBbQ","2",83,"1","1",558,"Correct",1
"3WBbQ","2",84,"1","1",278,"Correct",1
"3WBbQ","2",85,"2","2",174,"Correct",0
"3WBbQ","2",86,"1","1",662,"Correct",1
"3WBbQ","2",87,"1","1",349,"Correct",1
"3WBbQ","2",88,"1","1",215,"Correct",1
"3WBbQ","2",89,"1","1",386,"Correct",1
"3WBbQ","2",90,"2","1",178,"Correct",0
"3WBbQ","2",91,"1","1",328,"Correct",1
"3WBbQ","2",92,"1","1",296,"Incorrect",0
"3WBbQ","2",93,"1","1",288,"Correct",1
"3WBbQ","2",94,"2","1",185,"Correct",0
"3WBbQ","2",95,"2","1",147,"Correct",0
"3WBbQ","2",96,"1","1",502,"Correct",1
